sep=;
acc_x;acc_y;acc_z;grav_x;grav_y;grav_z;lin_acc_x;lin_acc_y;lin_acc_z;gyro_x;gyro_y;gyro_z;mag_x;mag_y;mag_z;sound_lvl;time_ms;date_time
22.582;-9.698;10.642;8.931;-3.933;0.967;12.488;-6.59;9.838;1.637;-2.863;6.81;-9.1;-20.9;17.0;51.16;19;2018-04-16 23:29:17:808
22.582;-9.698;10.642;8.643;-4.569;0.769;14.753;-4.407;9.673;1.637;-2.863;6.81;-11.2;-19.1;18.2;51.16;29;2018-04-16 23:29:17:818
22.582;-9.698;10.642;8.643;-4.569;0.769;14.753;-4.407;9.673;1.637;-2.863;6.81;-11.2;-19.1;18.2;51.16;40;2018-04-16 23:29:17:829
25.637;-6.504;9.401;8.379;-5.047;0.702;15.017;-3.929;9.74;1.914;-1.949;6.371;-13.3;-19.5;17.9;51.16;50;2018-04-16 23:29:17:839
29.354;-2.363;6.545;8.379;-5.047;0.702;15.017;-3.929;9.74;1.665;0.652;4.363;-17.1;-16.5;18.2;51.16;60;2018-04-16 23:29:17:849
29.354;-2.363;6.545;7.609;-6.08;1.141;22.439;4.26;5.058;0.999;1.993;3.385;-17.1;-16.5;18.2;51.16;69;2018-04-16 23:29:17:858
30.387;-1.228;5.14;7.609;-6.08;1.141;22.439;4.26;5.058;-0.327;4.314;1.692;-18.9;-14.9;19.3;51.16;80;2018-04-16 23:29:17:869
27.417;-1.012;3.582;7.281;-6.336;1.736;21.777;5.283;2.206;-0.327;4.314;1.692;-18.9;-14.9;19.3;51.16;90;2018-04-16 23:29:17:879
27.417;-1.012;3.582;7.281;-6.336;1.736;21.777;5.283;2.206;-1.401;5.776;0.045;-20.8;-13.8;18.1;51.16;100;2018-04-16 23:29:17:889
21.489;-2.083;3.745;7.085;-6.344;2.392;14.404;4.261;1.352;-1.654;6.067;-0.742;-20.8;-13.8;18.1;51.16;109;2018-04-16 23:29:17:898
15.483;-4.616;4.478;7.085;-6.344;2.392;14.404;4.261;1.352;-1.488;5.802;-1.236;-21.0;-14.2;17.5;51.16;119;2018-04-16 23:29:17:908
15.483;-4.616;4.478;6.957;-6.218;3.017;6.784;0.675;1.37;-0.99;5.214;-1.432;-21.0;-14.2;17.5;51.16;129;2018-04-16 23:29:17:918
10.776;-7.251;4.201;6.957;-6.218;3.017;6.784;0.675;1.37;-0.99;5.214;-1.432;-23.3;-15.8;14.2;51.16;139;2018-04-16 23:29:17:928
8.576;-8.274;4.622;6.874;-6.041;3.525;1.702;-2.234;1.097;0.352;3.185;-1.174;-22.4;-14.6;11.0;51.16;149;2018-04-16 23:29:17:938
8.576;-8.274;4.622;6.874;-6.041;3.525;1.702;-2.234;1.097;0.352;3.185;-1.174;-22.4;-14.6;11.0;51.16;160;2018-04-16 23:29:17:949
7.009;-7.531;4.902;6.843;-5.845;3.896;-0.037;-1.452;0.827;1.403;1.488;-0.655;-23.3;-16.5;11.8;51.16;170;2018-04-16 23:29:17:959
6.552;-6.925;4.262;6.843;-5.845;3.896;-0.037;-1.452;0.827;2.319;0.023;-0.127;-23.3;-16.5;11.8;51.16;180;2018-04-16 23:29:17:969
6.552;-6.925;4.262;6.864;-5.655;4.132;-0.036;-1.096;-0.863;2.926;-1.108;0.468;-22.6;-15.9;14.4;51.16;190;2018-04-16 23:29:17:979
7.737;-5.906;0.189;6.885;-5.591;4.183;0.851;-0.315;-3.994;2.938;-1.506;0.86;-23.5;-15.5;11.8;51.16;201;2018-04-16 23:29:17:990
7.737;-5.906;0.189;6.885;-5.591;4.183;0.851;-0.315;-3.994;2.938;-1.506;0.86;-23.5;-15.5;11.8;51.16;209;2018-04-16 23:29:17:998
9.111;-4.271;-3.077;6.957;-5.546;4.125;2.313;1.496;-5.866;2.27;-2.243;1.067;-24.1;-15.8;14.0;51.16;219;2018-04-16 23:29:18:008
9.111;-4.271;-3.077;6.957;-5.546;4.125;2.313;1.496;-5.866;2.27;-2.243;1.067;-24.1;-15.8;14.0;51.16;229;2018-04-16 23:29:18:018
11.378;-3.734;4.509;7.065;-5.629;3.816;5.602;2.301;3.56;1.12;-3.148;1.299;-22.9;-14.4;15.1;51.16;239;2018-04-16 23:29:18:028
12.602;-2.516;6.908;7.17;-5.619;3.63;5.431;3.103;3.278;1.933;-3.884;0.888;-22.9;-13.9;16.2;51.16;249;2018-04-16 23:29:18:038
12.602;-2.516;6.908;7.17;-5.619;3.63;5.431;3.103;3.278;1.933;-3.884;0.888;-22.9;-13.9;16.2;51.16;259;2018-04-16 23:29:18:048
10.4;-3.253;3.19;7.448;-5.41;3.381;2.402;2.326;0.249;3.398;-4.396;-0.227;-22.1;-13.5;18.4;51.16;269;2018-04-16 23:29:18:058
7.864;-3.807;1.786;7.593;-5.29;3.246;0.271;1.483;-1.46;3.398;-4.396;-0.227;-22.1;-13.5;18.4;51.16;279;2018-04-16 23:29:18:068
7.864;-3.807;1.786;7.593;-5.29;3.246;0.271;1.483;-1.46;3.207;-3.71;-0.15;-22.2;-13.3;18.6;51.16;290;2018-04-16 23:29:18:079
7.73;-1.516;0.419;7.825;-5.08;3.022;-0.095;3.565;-2.603;2.767;-3.189;-0.111;-22.2;-13.3;18.6;51.16;299;2018-04-16 23:29:18:088
7.217;-0.763;1.076;7.825;-5.08;3.022;-0.095;3.565;-2.603;2.074;-3.032;-0.54;-21.5;-12.5;21.2;51.16;310;2018-04-16 23:29:18:099
7.217;-0.763;1.076;8.046;-4.886;2.749;-1.013;4.257;-1.478;2.074;-3.032;-0.54;-21.5;-12.5;21.2;51.16;319;2018-04-16 23:29:18:108
6.881;-0.244;1.326;8.046;-4.886;2.749;-1.013;4.257;-1.478;1.934;-2.96;-0.777;-21.2;-11.5;20.1;51.16;330;2018-04-16 23:29:18:119
6.881;-0.244;1.326;8.301;-4.625;2.424;-1.99;4.339;-1.15;1.911;-3.102;-1.004;-21.2;-11.5;20.1;51.16;339;2018-04-16 23:29:18:128
5.298;-0.763;1.265;8.301;-4.625;2.424;-1.99;4.339;-1.15;1.864;-3.321;-1.186;-19.1;-10.7;23.3;50.28;349;2018-04-16 23:29:18:138
5.298;-0.763;1.265;8.545;-4.366;2.023;-5.81;2.266;-1.548;1.864;-3.321;-1.186;-19.1;-10.7;23.3;50.28;359;2018-04-16 23:29:18:148
5.298;-0.763;1.265;8.545;-4.366;2.023;-5.81;2.266;-1.548;1.864;-3.321;-1.186;-19.1;-10.7;23.3;50.28;370;2018-04-16 23:29:18:159
5.298;-0.763;1.265;8.545;-4.366;2.023;-5.81;2.266;-1.548;1.864;-3.321;-1.186;-19.1;-10.7;23.3;50.28;380;2018-04-16 23:29:18:169
5.298;-0.763;1.265;8.545;-4.366;2.023;-5.81;2.266;-1.548;1.864;-3.321;-1.186;-19.1;-10.7;23.3;50.28;390;2018-04-16 23:29:18:179
5.298;-0.763;1.265;8.545;-4.366;2.023;-5.81;2.266;-1.548;1.864;-3.321;-1.186;-19.1;-10.7;23.3;50.28;400;2018-04-16 23:29:18:189
5.298;-0.763;1.265;8.545;-4.366;2.023;-5.81;2.266;-1.548;1.864;-3.321;-1.186;-19.1;-10.7;23.3;50.28;410;2018-04-16 23:29:18:199
5.298;-0.763;1.265;8.545;-4.366;2.023;-5.81;2.266;-1.548;1.864;-3.321;-1.186;-19.1;-10.7;23.3;50.28;419;2018-04-16 23:29:18:208
5.298;-0.763;1.265;8.545;-4.366;2.023;-5.81;2.266;-1.548;1.864;-3.321;-1.186;-19.1;-10.7;23.3;50.28;429;2018-04-16 23:29:18:218
5.298;-0.763;1.265;8.545;-4.366;2.023;-5.81;2.266;-1.548;1.864;-3.321;-1.186;-19.1;-10.7;23.3;50.28;439;2018-04-16 23:29:18:228
5.298;-0.763;1.265;8.545;-4.366;2.023;-5.81;2.266;-1.548;1.864;-3.321;-1.186;-19.1;-10.7;23.3;50.28;449;2018-04-16 23:29:18:238
5.298;-0.763;1.265;8.545;-4.366;2.023;-5.81;2.266;-1.548;1.864;-3.321;-1.186;-19.1;-10.7;23.3;50.28;459;2018-04-16 23:29:18:248
5.298;-0.763;1.265;8.545;-4.366;2.023;-5.81;2.266;-1.548;1.864;-3.321;-1.186;-19.1;-10.7;23.3;50.28;470;2018-04-16 23:29:18:259
5.298;-0.763;1.265;8.545;-4.366;2.023;-5.81;2.266;-1.548;1.864;-3.321;-1.186;-19.1;-10.7;23.3;50.28;479;2018-04-16 23:29:18:268
5.298;-0.763;1.265;8.545;-4.366;2.023;-5.81;2.266;-1.548;1.864;-3.321;-1.186;-19.1;-10.7;23.3;50.28;489;2018-04-16 23:29:18:278
5.298;-0.763;1.265;8.545;-4.366;2.023;-5.81;2.266;-1.548;1.864;-3.321;-1.186;-19.1;-10.7;23.3;50.28;499;2018-04-16 23:29:18:288
5.298;-0.763;1.265;8.545;-4.366;2.023;-5.81;2.266;-1.548;1.864;-3.321;-1.186;-19.1;-10.7;23.3;50.28;509;2018-04-16 23:29:18:298
5.298;-0.763;1.265;8.545;-4.366;2.023;-5.81;2.266;-1.548;1.864;-3.321;-1.186;-19.1;-10.7;23.3;50.28;519;2018-04-16 23:29:18:308
5.298;-0.763;1.265;8.545;-4.366;2.023;-5.81;2.266;-1.548;1.864;-3.321;-1.186;-19.1;-10.7;23.3;50.28;530;2018-04-16 23:29:18:319
5.298;-0.763;1.265;8.545;-4.366;2.023;-5.81;2.266;-1.548;1.864;-3.321;-1.186;-19.1;-10.7;23.3;50.28;540;2018-04-16 23:29:18:329
2.676;-2.124;0.984;8.635;-4.279;1.818;-5.994;2.197;-0.528;1.058;-2.844;-0.874;-17.8;-8.8;25.2;50.28;550;2018-04-16 23:29:18:339
4.42;-7.555;0.432;9.24;-3.198;-0.755;-4.82;-4.357;1.187;-0.586;-0.882;1.009;-8.1;-8.7;32.2;50.28;560;2018-04-16 23:29:18:349
5.128;-5.687;-0.142;9.169;-3.368;-0.867;-4.041;-2.32;0.724;-0.735;-0.849;1.751;-8.1;-8.7;32.2;50.28;569;2018-04-16 23:29:18:358
4.083;-4.821;0.378;9.088;-3.552;-0.98;-5.005;-1.268;1.358;-0.919;-1.02;2.319;-7.2;-9.0;32.5;50.28;579;2018-04-16 23:29:18:368
4.083;-4.821;0.378;9.088;-3.552;-0.98;-5.005;-1.268;1.358;-0.856;-0.276;3.344;-7.2;-9.0;32.5;50.28;590;2018-04-16 23:29:18:379
4.105;-5.065;-1.245;8.827;-4.111;-1.165;-4.722;-0.954;-0.08;-0.859;-0.103;4.217;-8.0;-8.6;30.4;50.28;600;2018-04-16 23:29:18:389
4.65;-5.517;-2.313;8.827;-4.111;-1.165;-4.722;-0.954;-0.08;-0.959;-0.523;5.446;-8.0;-8.6;30.4;50.28;609;2018-04-16 23:29:18:398
4.65;-5.517;-2.313;8.322;-5.012;-1.34;-2.93;-1.098;-1.076;-1.07;-1.025;6.634;-9.7;-9.2;30.6;50.28;619;2018-04-16 23:29:18:408
9.413;-8.187;-2.444;8.322;-5.012;-1.34;-2.93;-1.098;-1.076;-1.049;-1.361;7.565;-9.7;-9.2;30.6;50.28;629;2018-04-16 23:29:18:418
12.645;-10.61;0.108;7.448;-6.164;-1.643;4.851;-4.42;1.173;-0.58;-0.527;8.034;-9.6;-8.7;30.9;50.28;640;2018-04-16 23:29:18:429
12.645;-10.61;0.108;7.448;-6.164;-1.643;4.851;-4.42;1.173;0.486;0.711;7.935;-9.6;-8.7;30.9;50.28;650;2018-04-16 23:29:18:439
9.875;-8.401;-2.421;6.394;-7.279;-1.517;3.48;-1.123;-0.903;1.655;0.358;7.819;-9.7;-8.5;31.1;50.28;659;2018-04-16 23:29:18:448
3.45;-7.587;-5.661;6.394;-7.279;-1.517;3.48;-1.123;-0.903;2.385;-1.317;8.16;-9.7;-8.5;31.1;50.76;669;2018-04-16 23:29:18:458
3.45;-7.587;-5.661;5.088;-8.283;-1.293;-2.229;1.407;-3.267;2.825;-3.085;8.629;-9.5;-8.5;31.3;50.76;679;2018-04-16 23:29:18:468
2.247;-5.26;-3.02;4.224;-8.769;-1.196;-1.977;3.509;-1.824;3.406;-4.296;8.676;-9.5;-8.5;31.3;50.76;690;2018-04-16 23:29:18:479
1.881;-3.619;0.013;4.224;-8.769;-1.196;-1.977;3.509;-1.824;4.012;-4.742;8.59;-10.0;-7.6;31.7;50.76;700;2018-04-16 23:29:18:489
1.881;-3.619;0.013;2.566;-9.433;-0.781;-0.697;5.853;0.641;4.429;-4.6;8.463;-10.0;-7.6;31.7;50.76;709;2018-04-16 23:29:18:498
1.512;-4.274;0.333;2.566;-9.433;-0.781;-0.697;5.853;0.641;4.635;-4.435;8.241;-10.5;-4.1;32.5;50.76;719;2018-04-16 23:29:18:508
1.041;-4.361;2.421;0.93;-9.762;-0.045;0.638;5.612;-0.343;4.362;-4.125;7.741;-10.5;-4.1;32.5;50.76;729;2018-04-16 23:29:18:518
1.041;-4.361;2.421;0.93;-9.762;-0.045;0.638;5.612;-0.343;3.13;-2.452;6.887;-10.4;-0.6;33.6;50.76;739;2018-04-16 23:29:18:528
0.199;-3.351;3.287;-0.389;-9.785;0.515;0.588;6.435;2.772;1.41;-0.16;6.17;-10.4;-0.6;33.6;50.76;750;2018-04-16 23:29:18:539
0.081;-2.359;-0.443;-0.389;-9.785;0.515;0.588;6.435;2.772;0.258;0.483;5.701;-9.6;3.1;35.2;50.76;759;2018-04-16 23:29:18:548
0.081;-2.359;-0.443;-1.5;-9.674;0.584;1.554;7.299;-1.304;0.023;-0.712;5.401;-9.6;3.1;35.2;50.76;769;2018-04-16 23:29:18:558
0.362;-1.996;-1.829;-1.5;-9.674;0.584;1.554;7.299;-1.304;-0.187;-2.09;5.075;-9.3;3.6;35.2;50.76;779;2018-04-16 23:29:18:568
0.59;-1.799;-1.372;-2.442;-9.477;0.624;2.95;7.808;-2.636;-0.649;-3.33;4.658;-9.3;3.6;35.2;50.76;789;2018-04-16 23:29:18:578
0.59;-1.799;-1.372;-2.442;-9.477;0.624;2.95;7.808;-2.636;-1.183;-4.226;4.206;-7.5;6.2;34.7;50.76;799;2018-04-16 23:29:18:588
0.532;-2.316;1.856;-3.173;-9.257;0.639;3.704;6.941;1.216;-1.592;-4.803;3.792;-7.5;6.2;34.7;50.76;810;2018-04-16 23:29:18:599
-6.075;-23.364;12.509;-3.173;-9.257;0.639;3.704;6.941;1.216;-1.681;-4.744;3.495;-5.9;4.1;36.4;50.76;820;2018-04-16 23:29:18:609
-6.075;-23.364;12.509;-3.768;-9.028;0.685;-2.105;-25.998;11.627;-1.31;-3.566;4.04;-5.9;4.1;36.4;50.76;830;2018-04-16 23:29:18:619
-6.376;-39.185;24.707;-3.768;-9.028;0.685;-2.105;-25.998;11.627;-2.856;1.106;-0.34;-3.5;4.7;35.0;50.76;840;2018-04-16 23:29:18:629
-17.081;-39.17;17.798;-3.988;-8.954;0.299;-10.21;-30.231;24.79;-2.856;1.106;-0.34;-3.5;4.7;35.0;50.76;850;2018-04-16 23:29:18:639
-17.081;-39.17;17.798;-3.988;-8.954;0.299;-10.21;-30.231;24.79;-2.159;4.265;-2.265;-3.5;4.4;36.1;50.76;859;2018-04-16 23:29:18:648
-8.42;-19.589;2.403;-3.63;-9.102;-0.367;-4.79;-10.487;2.77;-1.232;5.461;-1.706;-3.5;4.4;36.1;50.76;869;2018-04-16 23:29:18:658
-2.986;-6.548;-12.219;-3.63;-9.102;-0.367;-4.79;-10.487;2.77;-0.382;4.459;-0.833;-5.9;4.2;36.9;50.76;879;2018-04-16 23:29:18:668
-2.986;-6.548;-12.219;-3.44;-9.166;-0.558;2.121;6.773;-16.74;2.348;-2.927;-0.852;-5.9;4.2;36.9;50.76;889;2018-04-16 23:29:18:678
-0.722;-0.286;-10.787;-3.44;-9.166;-0.558;2.121;6.773;-16.74;3.946;-8.247;-1.038;-8.0;4.4;35.0;50.76;899;2018-04-16 23:29:18:688
-3.97;-4.591;-0.119;-3.238;-9.231;0.68;0.723;6.868;-4.308;4.238;-10.087;-1.058;-8.0;4.4;35.0;50.76;909;2018-04-16 23:29:18:698
-3.97;-4.591;-0.119;-3.238;-9.231;0.68;0.723;6.868;-4.308;4.238;-10.087;-1.058;-3.5;6.2;34.6;50.76;920;2018-04-16 23:29:18:709
-7.691;-7.463;-6.906;-2.852;-9.164;2.014;-4.84;1.701;-8.92;3.719;-9.484;-0.424;-3.5;6.2;34.6;50.76;930;2018-04-16 23:29:18:719
-10.068;-10.813;-10.339;-2.852;-9.164;2.014;-4.84;1.701;-8.92;1.142;-8.712;0.418;1.4;8.3;34.7;50.76;940;2018-04-16 23:29:18:729
-10.068;-10.813;-10.339;-2.543;-9.098;2.631;-7.328;-1.98;-9.163;-1.311;-5.945;0.972;1.4;8.3;34.7;50.76;950;2018-04-16 23:29:18:739
-8.527;-9.618;-0.615;-2.543;-9.098;2.631;-7.328;-1.98;-9.163;-2.913;-2.672;1.356;4.6;8.2;33.8;50.76;959;2018-04-16 23:29:18:748
-5.991;-8.892;5.034;-2.654;-9.168;2.254;-4.295;0.279;1.267;-3.319;-0.173;1.515;4.6;8.2;33.8;50.76;969;2018-04-16 23:29:18:758
-5.991;-8.892;5.034;-2.654;-9.168;2.254;-4.295;0.279;1.267;-2.925;1.668;1.476;6.2;8.0;34.4;50.76;979;2018-04-16 23:29:18:768
-2.483;-8.274;5.624;-2.974;-9.199;1.642;0.491;0.925;3.982;-2.186;2.909;1.089;6.2;8.0;34.4;67.76;989;2018-04-16 23:29:18:778
-2.004;-9.07;4.888;-2.974;-9.199;1.642;0.491;0.925;3.982;-1.363;3.712;0.511;5.7;6.2;33.3;67.76;999;2018-04-16 23:29:18:788
-2.004;-9.07;4.888;-3.166;-9.207;1.176;0.863;-0.034;3.271;-0.619;4.285;0.199;5.7;6.2;33.3;67.76;1009;2018-04-16 23:29:18:798
-2.625;-9.335;3.388;-3.166;-9.207;1.176;0.863;-0.034;3.271;-0.059;4.617;0.13;3.9;5.0;33.9;67.76;1020;2018-04-16 23:29:18:809
-2.344;-9.512;1.902;-3.277;-9.201;0.876;0.781;-0.204;1.394;-0.059;4.617;0.13;3.9;5.0;33.9;67.76;1029;2018-04-16 23:29:18:818
-2.344;-9.512;1.902;-3.277;-9.201;0.876;0.781;-0.204;1.394;0.413;4.712;0.131;2.2;4.5;33.9;67.76;1040;2018-04-16 23:29:18:829
-2.025;-9.934;0.729;-3.359;-9.19;0.657;1.334;-0.744;0.072;0.556;4.597;0.095;2.2;4.5;33.9;67.76;1050;2018-04-16 23:29:18:839
-1.98;-10.204;0.19;-3.385;-9.186;0.575;1.405;-1.018;-0.384;0.617;4.31;0.054;-0.1;5.3;35.3;67.76;1059;2018-04-16 23:29:18:848
-1.98;-10.204;0.19;-3.385;-9.186;0.575;1.405;-1.018;-0.384;0.617;4.31;0.054;-0.1;5.3;35.3;67.76;1069;2018-04-16 23:29:18:858
-1.881;-10.068;-0.545;-3.421;-9.18;0.433;1.54;-0.887;-0.978;0.61;3.416;0.009;-1.5;5.2;35.5;67.76;1079;2018-04-16 23:29:18:868
-1.817;-9.635;-1.027;-3.421;-9.18;0.433;1.54;-0.887;-0.978;0.545;2.891;-0.004;-1.5;5.2;35.5;67.76;1090;2018-04-16 23:29:18:879
-1.817;-9.635;-1.027;-3.431;-9.181;0.328;1.628;-0.29;-1.26;0.414;2.281;-0.006;-2.8;4.7;35.5;67.76;1100;2018-04-16 23:29:18:889
-1.766;-9.293;-0.716;-3.431;-9.181;0.328;1.628;-0.29;-1.26;0.268;1.668;0.005;-2.8;4.7;35.5;67.76;1110;2018-04-16 23:29:18:899
-1.954;-9.366;-0.322;-3.431;-9.183;0.256;1.506;-0.109;-0.706;-0.032;0.667;0.046;-2.8;5.7;37.0;67.76;1119;2018-04-16 23:29:18:908
-1.954;-9.366;-0.322;-3.431;-9.183;0.256;1.506;-0.109;-0.706;-0.17;0.257;0.076;-2.8;5.7;37.0;67.76;1129;2018-04-16 23:29:18:918
-1.896;-9.45;-0.026;-3.433;-9.184;0.198;1.537;-0.266;-0.224;-0.294;-0.108;0.083;-3.5;5.7;36.6;67.76;1139;2018-04-16 23:29:18:928
-2.024;-9.562;0.597;-3.433;-9.184;0.198;1.537;-0.266;-0.224;-0.373;-0.414;0.083;-3.5;5.7;36.6;67.76;1149;2018-04-16 23:29:18:938
-2.024;-9.562;0.597;-3.434;-9.185;0.156;1.369;-0.384;0.7;-0.397;-0.628;0.09;-3.3;5.9;36.4;67.76;1159;2018-04-16 23:29:18:948
-2.102;-9.463;1.299;-3.434;-9.185;0.156;1.369;-0.384;0.7;-0.373;-0.737;0.077;-3.3;5.9;36.4;67.76;1169;2018-04-16 23:29:18:958
-2.217;-9.257;1.522;-3.43;-9.186;0.145;1.299;-0.126;1.346;-0.325;-0.773;0.043;-3.0;5.7;35.9;67.76;1180;2018-04-16 23:29:18:969
-2.217;-9.257;1.522;-3.43;-9.186;0.145;1.299;-0.126;1.346;-0.268;-0.77;0.012;-3.0;5.7;35.9;67.76;1190;2018-04-16 23:29:18:979
-2.461;-9.205;1.586;-3.418;-9.19;0.157;0.957;-0.014;1.429;-0.206;-0.727;-0.005;-2.4;6.1;36.6;67.76;1200;2018-04-16 23:29:18:989
-2.703;-9.16;1.766;-3.418;-9.19;0.157;0.957;-0.014;1.429;-0.143;-0.638;-0.026;-2.4;6.1;36.6;67.76;1210;2018-04-16 23:29:18:999
-2.703;-9.16;1.766;-3.402;-9.196;0.186;0.594;0.017;1.591;-0.083;-0.512;-0.046;-2.4;5.7;37.0;67.76;1219;2018-04-16 23:29:19:008
-3.026;-9.194;1.745;-3.402;-9.196;0.186;0.594;0.017;1.591;-0.024;-0.362;-0.056;-2.4;5.7;37.0;67.76;1229;2018-04-16 23:29:19:018
-3.311;-9.245;1.476;-3.383;-9.202;0.218;0.173;-0.017;1.386;0.016;-0.221;-0.066;-2.3;5.3;36.8;67.76;1239;2018-04-16 23:29:19:028
-3.311;-9.245;1.476;-3.383;-9.202;0.218;0.173;-0.017;1.386;0.046;-0.119;-0.07;-2.3;5.3;36.8;67.76;1249;2018-04-16 23:29:19:038
-3.5;-9.246;1.109;-3.366;-9.207;0.253;-0.134;-0.039;0.855;0.065;-0.065;-0.066;-2.3;5.6;37.0;67.76;1259;2018-04-16 23:29:19:048
-3.619;-9.222;0.668;-3.366;-9.207;0.253;-0.134;-0.039;0.855;0.068;-0.066;-0.057;-2.3;5.6;37.0;67.76;1269;2018-04-16 23:29:19:058
-3.619;-9.222;0.668;-3.362;-9.207;0.304;-0.278;0.003;0.276;0.068;-0.066;-0.057;-2.4;4.8;36.0;67.76;1280;2018-04-16 23:29:19:069
-3.688;-9.178;0.317;-3.362;-9.207;0.304;-0.278;0.003;0.276;0.064;-0.151;-0.039;-2.4;4.8;36.0;67.76;1290;2018-04-16 23:29:19:079
-3.737;-9.129;-0.405;-3.385;-9.198;0.325;-0.341;0.057;-0.284;0.064;-0.359;-0.02;-2.4;5.1;36.4;67.76;1300;2018-04-16 23:29:19:089
-3.737;-9.129;-0.405;-3.385;-9.198;0.325;-0.341;0.057;-0.284;0.064;-0.359;-0.02;-2.4;5.1;36.4;50.13;1310;2018-04-16 23:29:19:099
-3.865;-9.151;-1.177;-3.399;-9.191;0.382;-0.467;0.04;-1.559;0.309;-1.224;-0.007;-2.9;5.2;36.4;50.13;1319;2018-04-16 23:29:19:108
-3.715;-9.173;0.227;-3.399;-9.191;0.382;-0.467;0.04;-1.559;0.563;-1.996;0.021;-2.9;5.2;36.4;50.13;1329;2018-04-16 23:29:19:118
-3.715;-9.173;0.227;-3.388;-9.181;0.634;-0.261;-0.01;-0.166;0.633;-2.308;0.083;-3.3;5.3;36.5;50.13;1339;2018-04-16 23:29:19:128
-3.481;-9.208;0.667;-3.388;-9.181;0.634;-0.261;-0.01;-0.166;0.536;-2.14;0.106;-3.3;5.3;36.5;50.13;1349;2018-04-16 23:29:19:138
-3.237;-9.244;0.208;-3.375;-9.166;0.877;0.052;-0.07;-0.48;0.441;-1.955;0.126;-3.4;5.3;36.6;50.13;1359;2018-04-16 23:29:19:148
-3.237;-9.244;0.208;-3.375;-9.166;0.877;0.052;-0.07;-0.48;0.4;-1.858;0.15;-3.4;5.3;36.6;50.13;1369;2018-04-16 23:29:19:158
-2.907;-9.275;-0.31;-3.366;-9.149;1.066;0.459;-0.126;-1.376;0.412;-1.841;0.158;-3.3;5.4;36.6;50.13;1380;2018-04-16 23:29:19:169
-2.679;-9.331;-0.316;-3.366;-9.149;1.066;0.459;-0.126;-1.376;0.428;-1.724;0.143;-3.3;5.4;36.6;50.13;1390;2018-04-16 23:29:19:179
-2.679;-9.331;-0.316;-3.352;-9.131;1.248;0.707;-0.205;-1.496;0.364;-1.417;0.114;-2.9;5.5;36.6;50.13;1400;2018-04-16 23:29:19:189
-2.618;-9.354;0.028;-3.352;-9.131;1.248;0.707;-0.205;-1.496;0.226;-0.911;0.09;-2.9;5.5;36.6;50.13;1410;2018-04-16 23:29:19:199
-2.614;-9.317;0.57;-3.337;-9.119;1.37;0.72;-0.237;-1.01;0.033;-0.248;0.059;-2.5;5.5;36.4;50.13;1420;2018-04-16 23:29:19:209
-2.614;-9.317;0.57;-3.337;-9.119;1.37;0.72;-0.237;-1.01;-0.167;0.447;0.021;-2.5;5.5;36.4;50.13;1429;2018-04-16 23:29:19:218
-2.735;-9.319;0.804;-3.345;-9.122;1.332;0.609;-0.198;-0.527;-0.299;1.019;-0.01;-2.0;5.7;36.4;50.13;1439;2018-04-16 23:29:19:228
-3.019;-9.459;0.773;-3.345;-9.122;1.332;0.609;-0.198;-0.527;-0.343;1.398;-0.031;-2.0;5.7;36.4;50.13;1449;2018-04-16 23:29:19:238
-3.019;-9.459;0.773;-3.371;-9.134;1.175;0.307;-0.333;-0.416;-0.316;1.577;-0.037;-1.5;5.7;36.3;50.13;1459;2018-04-16 23:29:19:248
-3.108;-9.433;0.652;-3.371;-9.134;1.175;0.307;-0.333;-0.416;-0.25;1.62;-0.042;-1.5;5.7;36.3;50.13;1469;2018-04-16 23:29:19:258
-3.083;-9.284;0.585;-3.397;-9.143;1.015;0.313;-0.199;-0.411;-0.188;1.582;-0.046;-1.1;5.7;36.4;50.13;1479;2018-04-16 23:29:19:268
-3.083;-9.284;0.585;-3.397;-9.143;1.015;0.313;-0.199;-0.411;-0.139;1.513;-0.05;-1.1;5.7;36.4;50.13;1489;2018-04-16 23:29:19:278
-3.049;-9.153;0.596;-3.414;-9.151;0.881;0.365;-0.002;-0.285;-0.128;1.443;-0.05;-0.9;5.7;36.4;50.13;1500;2018-04-16 23:29:19:289
-3.073;-9.118;0.605;-3.414;-9.151;0.881;0.365;-0.002;-0.285;-0.143;1.389;-0.044;-0.9;5.7;36.4;50.13;1510;2018-04-16 23:29:19:299
-3.073;-9.118;0.605;-3.426;-9.157;0.757;0.319;0.016;-0.138;-0.143;1.389;-0.044;-0.7;5.8;36.3;50.13;1520;2018-04-16 23:29:19:309
-3.13;-9.165;0.601;-3.426;-9.157;0.757;0.319;0.016;-0.138;-0.184;1.29;-0.033;-0.7;5.8;36.3;50.13;1530;2018-04-16 23:29:19:319
-3.08;-9.248;0.516;-3.436;-9.163;0.634;0.338;-0.052;-0.086;-0.203;1.14;-0.012;-0.5;5.9;36.3;50.13;1540;2018-04-16 23:29:19:329
-3.08;-9.248;0.516;-3.436;-9.163;0.634;0.338;-0.052;-0.086;-0.206;0.983;0.001;-0.5;5.9;36.3;50.13;1549;2018-04-16 23:29:19:338
-2.986;-9.279;0.447;-3.444;-9.167;0.527;0.458;-0.112;-0.081;-0.187;0.809;0.002;-0.4;5.9;36.3;50.13;1559;2018-04-16 23:29:19:348
-2.954;-9.37;0.4;-3.444;-9.167;0.527;0.458;-0.112;-0.081;-0.159;0.605;0.018;-0.4;5.9;36.3;50.13;1569;2018-04-16 23:29:19:358
-2.954;-9.37;0.4;-3.448;-9.169;0.455;0.533;-0.198;-0.031;-0.126;0.395;0.026;-0.4;6.0;36.3;50.13;1579;2018-04-16 23:29:19:368
-2.863;-9.383;0.484;-3.448;-9.169;0.455;0.533;-0.198;-0.031;-0.095;0.2;0.023;-0.4;6.0;36.3;50.13;1590;2018-04-16 23:29:19:379
-2.849;-9.349;0.607;-3.449;-9.171;0.422;0.59;-0.198;0.161;-0.068;0.034;0.024;-0.4;6.1;36.3;50.13;1600;2018-04-16 23:29:19:389
-2.849;-9.349;0.607;-3.449;-9.171;0.422;0.59;-0.198;0.161;-0.049;-0.101;0.029;-0.4;6.1;36.3;50.13;1609;2018-04-16 23:29:19:398
-2.825;-9.288;0.672;-3.437;-9.175;0.422;0.612;-0.114;0.249;-0.031;-0.206;0.033;-0.3;6.1;36.2;50.13;1619;2018-04-16 23:29:19:408
-2.778;-9.279;0.687;-3.437;-9.175;0.422;0.612;-0.114;0.249;-0.017;-0.294;0.035;-0.3;6.1;36.2;50.13;1629;2018-04-16 23:29:19:418
-2.778;-9.279;0.687;-3.4;-9.188;0.447;0.624;-0.073;0.24;-0.005;-0.364;0.035;-0.4;6.1;36.1;50.13;1639;2018-04-16 23:29:19:428
-2.758;-9.284;0.692;-3.4;-9.188;0.447;0.624;-0.073;0.24;-0.005;-0.428;0.04;-0.4;6.1;36.1;43.06;1649;2018-04-16 23:29:19:438
-2.757;-9.298;0.693;-3.382;-9.193;0.478;0.621;-0.106;0.221;0.005;-0.478;0.035;-0.5;6.1;36.1;43.06;1660;2018-04-16 23:29:19:449
-2.757;-9.298;0.693;-3.382;-9.193;0.478;0.621;-0.106;0.221;0.013;-0.545;0.035;-0.5;6.1;36.1;43.06;1670;2018-04-16 23:29:19:459
-2.78;-9.325;0.632;-3.377;-9.192;0.515;0.598;-0.133;0.117;0.032;-0.597;0.034;-0.6;6.1;36.1;43.06;1679;2018-04-16 23:29:19:468
-2.81;-9.363;0.502;-3.377;-9.192;0.515;0.598;-0.133;0.117;0.06;-0.676;0.033;-0.6;6.1;36.1;43.06;1689;2018-04-16 23:29:19:478
-2.81;-9.363;0.502;-3.371;-9.192;0.565;0.557;-0.185;-0.11;0.105;-0.787;0.027;-0.9;6.1;36.1;43.06;1699;2018-04-16 23:29:19:488
-2.83;-9.382;0.378;-3.371;-9.192;0.565;0.557;-0.185;-0.11;0.105;-0.787;0.027;-0.9;6.1;36.1;43.06;1709;2018-04-16 23:29:19:498
-2.865;-9.294;0.373;-3.36;-9.19;0.648;0.497;-0.129;-0.288;0.172;-0.948;0.022;-1.1;6.0;36.1;43.06;1720;2018-04-16 23:29:19:509
-2.865;-9.294;0.373;-3.36;-9.19;0.648;0.497;-0.129;-0.288;0.195;-1.015;0.018;-1.1;6.0;36.1;43.06;1730;2018-04-16 23:29:19:519
-2.922;-9.242;0.385;-3.346;-9.188;0.748;0.424;-0.054;-0.363;0.193;-1.03;0.015;-1.4;5.9;36.1;43.06;1740;2018-04-16 23:29:19:529
-3.018;-9.232;0.457;-3.346;-9.188;0.748;0.424;-0.054;-0.363;0.171;-0.979;0.013;-1.4;5.9;36.1;43.06;1749;2018-04-16 23:29:19:538
-3.018;-9.232;0.457;-3.331;-9.185;0.841;0.281;-0.054;-0.369;0.143;-0.892;0.013;-1.6;5.9;36.1;43.06;1759;2018-04-16 23:29:19:548
-3.1;-9.212;0.481;-3.331;-9.185;0.841;0.281;-0.054;-0.369;0.109;-0.768;0.009;-1.6;5.9;36.1;43.06;1769;2018-04-16 23:29:19:558
-3.153;-9.185;0.541;-3.319;-9.183;0.908;0.188;-0.009;-0.385;0.068;-0.619;0.007;-1.6;5.9;36.1;43.06;1779;2018-04-16 23:29:19:568
-3.153;-9.185;0.541;-3.319;-9.183;0.908;0.188;-0.009;-0.385;0.068;-0.619;0.007;-1.6;5.9;36.1;43.06;1789;2018-04-16 23:29:19:578
-3.129;-9.187;0.572;-3.311;-9.183;0.941;0.183;-0.017;-0.331;0.032;-0.447;0.006;-1.6;5.9;36.1;43.06;1799;2018-04-16 23:29:19:588
-3.152;-9.251;0.636;-3.311;-9.183;0.941;0.183;-0.017;-0.331;-0.024;-0.16;-0.005;-1.3;5.6;35.6;43.06;1809;2018-04-16 23:29:19:598
-3.185;-9.261;0.675;-3.307;-9.185;0.934;0.137;-0.082;-0.259;-0.079;0.131;-0.011;-1.3;5.6;35.6;43.06;1820;2018-04-16 23:29:19:609
-3.185;-9.261;0.675;-3.307;-9.185;0.934;0.137;-0.082;-0.259;-0.111;0.292;-0.013;0.0;4.2;32.8;43.06;1830;2018-04-16 23:29:19:619
-3.213;-9.264;0.674;-3.307;-9.189;0.887;0.094;-0.075;-0.213;-0.12;0.418;-0.015;0.0;4.2;32.8;43.06;1840;2018-04-16 23:29:19:629
-3.253;-9.294;0.673;-3.307;-9.189;0.887;0.094;-0.075;-0.213;-0.125;0.505;-0.016;1.1;3.4;31.7;43.06;1850;2018-04-16 23:29:19:639
-3.253;-9.294;0.673;-3.312;-9.193;0.827;0.044;-0.105;-0.146;-0.125;0.505;-0.016;1.1;3.4;31.7;43.06;1860;2018-04-16 23:29:19:649
-3.28;-9.294;0.7;-3.312;-9.193;0.827;0.044;-0.105;-0.146;-0.121;0.579;-0.016;0.9;2.8;30.0;43.06;1870;2018-04-16 23:29:19:659
-3.215;-9.196;0.707;-3.318;-9.196;0.765;0.068;-0.044;-0.055;-0.115;0.617;-0.012;0.9;2.8;30.0;43.06;1879;2018-04-16 23:29:19:668
-3.215;-9.196;0.707;-3.318;-9.196;0.765;0.068;-0.044;-0.055;-0.112;0.627;-0.015;1.4;2.6;31.2;43.06;1889;2018-04-16 23:29:19:678
-3.188;-9.158;0.736;-3.324;-9.199;0.703;0.136;0.042;0.034;-0.116;0.63;-0.013;1.4;2.6;31.2;43.06;1899;2018-04-16 23:29:19:688
-3.169;-9.205;0.771;-3.324;-9.199;0.703;0.136;0.042;0.034;-0.125;0.633;-0.013;1.3;2.7;30.5;43.06;1910;2018-04-16 23:29:19:699
-3.169;-9.205;0.771;-3.328;-9.203;0.639;0.162;-0.033;0.15;-0.133;0.624;-0.015;1.3;2.7;30.5;43.06;1920;2018-04-16 23:29:19:709
-3.188;-9.246;0.775;-3.328;-9.203;0.639;0.162;-0.033;0.15;-0.134;0.606;-0.011;0.9;2.3;30.1;43.06;1929;2018-04-16 23:29:19:718
-3.141;-9.19;0.696;-3.331;-9.205;0.575;0.186;-0.016;0.163;-0.11;0.53;-0.006;0.9;2.3;30.1;43.06;1939;2018-04-16 23:29:19:728
-3.141;-9.19;0.696;-3.331;-9.205;0.575;0.186;-0.016;0.163;-0.076;0.43;-0.001;1.0;1.7;29.9;43.06;1949;2018-04-16 23:29:19:738
-3.105;-9.202;0.614;-3.334;-9.207;0.526;0.229;0.005;0.088;-0.035;0.305;0.0;1.0;1.7;29.9;43.06;1959;2018-04-16 23:29:19:748
-3.081;-9.282;0.679;-3.334;-9.207;0.526;0.229;0.005;0.088;0.007;0.188;0.007;0.8;2.4;29.1;45.57;1969;2018-04-16 23:29:19:758
-3.081;-9.282;0.679;-3.335;-9.208;0.508;0.257;-0.084;0.2;0.024;0.108;0.009;0.8;2.4;29.1;45.57;1980;2018-04-16 23:29:19:769
-3.049;-9.26;0.765;-3.335;-9.208;0.508;0.257;-0.084;0.2;0.029;0.065;0.015;0.6;1.8;26.5;45.57;1990;2018-04-16 23:29:19:779
-2.963;-9.213;0.725;-3.332;-9.209;0.512;0.332;-0.023;0.249;0.029;0.033;0.02;0.6;1.8;26.5;45.57;1999;2018-04-16 23:29:19:788
-2.963;-9.213;0.725;-3.332;-9.209;0.512;0.332;-0.023;0.249;0.033;-0.016;0.023;1.0;2.1;27.3;45.57;2009;2018-04-16 23:29:19:798
-2.922;-9.195;0.612;-3.318;-9.213;0.524;0.396;0.019;0.088;0.046;-0.09;0.023;1.0;2.1;27.3;45.57;2019;2018-04-16 23:29:19:808
-2.908;-9.257;0.534;-3.318;-9.213;0.524;0.396;0.019;0.088;0.068;-0.183;0.028;0.9;1.4;28.0;45.57;2029;2018-04-16 23:29:19:818
-2.908;-9.257;0.534;-3.301;-9.218;0.546;0.404;-0.056;-0.017;0.082;-0.27;0.028;0.9;1.4;28.0;45.57;2039;2018-04-16 23:29:19:828
-2.896;-9.307;0.498;-3.301;-9.218;0.546;0.404;-0.056;-0.017;0.093;-0.352;0.028;1.4;1.9;28.1;45.57;2050;2018-04-16 23:29:19:839
-2.859;-9.307;0.461;-3.293;-9.219;0.583;0.406;-0.099;-0.113;0.099;-0.423;0.026;1.4;1.9;28.1;45.57;2059;2018-04-16 23:29:19:848
-2.859;-9.307;0.461;-3.293;-9.219;0.583;0.406;-0.099;-0.113;0.105;-0.483;0.027;1.5;1.7;28.0;45.57;2069;2018-04-16 23:29:19:858
-2.802;-9.279;0.421;-3.288;-9.217;0.631;0.486;-0.061;-0.21;0.115;-0.539;0.026;1.5;1.7;28.0;45.57;2079;2018-04-16 23:29:19:868
-2.789;-9.3;0.409;-3.288;-9.217;0.631;0.486;-0.061;-0.21;0.131;-0.583;0.022;1.6;1.4;27.5;45.57;2090;2018-04-16 23:29:19:879
-2.789;-9.3;0.409;-3.28;-9.216;0.689;0.49;-0.108;-0.256;0.132;-0.607;0.02;1.6;1.4;27.5;45.57;2100;2018-04-16 23:29:19:889
-2.838;-9.345;0.504;-3.28;-9.216;0.689;0.49;-0.108;-0.256;0.134;-0.584;0.012;1.5;1.4;27.5;45.57;2110;2018-04-16 23:29:19:899
-2.974;-9.355;0.587;-3.271;-9.215;0.749;0.337;-0.151;-0.181;0.123;-0.519;0.004;1.5;1.4;27.5;45.57;2119;2018-04-16 23:29:19:908
-2.974;-9.355;0.587;-3.271;-9.215;0.749;0.337;-0.151;-0.181;0.112;-0.43;0.0;1.4;1.5;27.6;45.57;2129;2018-04-16 23:29:19:918
-3.072;-9.279;0.526;-3.262;-9.214;0.796;0.19;-0.065;-0.27;0.106;-0.341;-0.005;1.4;1.5;27.6;45.57;2139;2018-04-16 23:29:19:928
-3.111;-9.284;0.426;-3.262;-9.214;0.796;0.19;-0.065;-0.27;0.109;-0.263;-0.004;1.4;1.5;27.6;45.57;2149;2018-04-16 23:29:19:938
-3.111;-9.284;0.426;-3.256;-9.213;0.829;0.143;-0.062;-0.433;0.108;-0.186;-0.005;1.4;1.5;27.6;45.57;2159;2018-04-16 23:29:19:948
-3.096;-9.317;0.357;-3.256;-9.213;0.829;0.143;-0.062;-0.433;0.095;-0.101;0.0;1.4;1.6;27.8;45.57;2169;2018-04-16 23:29:19:958
-2.998;-9.334;0.347;-3.253;-9.213;0.848;0.21;-0.132;-0.483;0.064;-0.006;0.001;1.4;1.6;27.8;45.57;2180;2018-04-16 23:29:19:969
-2.998;-9.334;0.347;-3.253;-9.213;0.848;0.21;-0.132;-0.483;0.012;0.104;0.006;1.4;1.6;27.8;45.57;2190;2018-04-16 23:29:19:979
-2.897;-9.307;0.356;-3.247;-9.216;0.828;0.35;-0.091;-0.473;-0.042;0.206;0.001;1.4;1.6;27.8;45.57;2200;2018-04-16 23:29:19:989
-2.819;-9.232;0.418;-3.247;-9.216;0.828;0.35;-0.091;-0.473;-0.09;0.292;0.0;1.4;1.6;27.8;45.57;2210;2018-04-16 23:29:19:999
-2.819;-9.232;0.418;-3.242;-9.222;0.781;0.419;-0.001;-0.332;-0.132;0.368;-0.007;1.4;1.6;27.8;45.57;2219;2018-04-16 23:29:20:008
-2.88;-9.228;0.499;-3.242;-9.222;0.781;0.419;-0.001;-0.332;-0.134;0.391;-0.013;1.5;1.7;27.9;45.57;2229;2018-04-16 23:29:20:018
-3.0;-9.286;0.584;-3.243;-9.226;0.73;0.274;-0.042;-0.169;-0.123;0.392;-0.015;1.5;1.7;27.9;45.57;2239;2018-04-16 23:29:20:028
-3.0;-9.286;0.584;-3.243;-9.226;0.73;0.274;-0.042;-0.169;-0.104;0.384;-0.017;1.6;1.8;28.0;45.57;2249;2018-04-16 23:29:20:038
-3.06;-9.315;0.663;-3.243;-9.23;0.682;0.184;-0.085;-0.019;-0.104;0.384;-0.017;1.6;1.8;28.0;45.57;2259;2018-04-16 23:29:20:048
-3.071;-9.325;0.651;-3.243;-9.23;0.682;0.184;-0.085;-0.019;-0.079;0.37;-0.018;1.7;1.7;28.2;45.57;2270;2018-04-16 23:29:20:059
-3.071;-9.325;0.651;-3.243;-9.232;0.644;0.181;-0.058;-0.003;-0.067;0.336;-0.015;1.7;1.7;28.2;45.57;2280;2018-04-16 23:29:20:069
-3.037;-9.237;0.597;-3.243;-9.232;0.644;0.181;-0.058;-0.003;-0.06;0.294;-0.011;1.8;1.8;28.6;50.18;2290;2018-04-16 23:29:20:079
-2.996;-9.171;0.572;-3.243;-9.235;0.614;0.236;0.047;-0.032;-0.051;0.239;-0.007;1.8;1.8;28.6;50.18;2300;2018-04-16 23:29:20:089
-2.996;-9.171;0.572;-3.243;-9.235;0.614;0.236;0.047;-0.032;-0.043;0.177;-0.005;1.9;1.8;28.7;50.18;2310;2018-04-16 23:29:20:099
-2.995;-9.199;0.576;-3.242;-9.236;0.594;0.247;0.038;-0.018;-0.034;0.11;0.001;1.9;1.8;28.7;50.18;2320;2018-04-16 23:29:20:109
-2.972;-9.233;0.601;-3.242;-9.236;0.594;0.247;0.038;-0.018;-0.034;0.11;0.001;2.0;1.9;29.0;50.18;2330;2018-04-16 23:29:20:119
-2.972;-9.233;0.601;-3.239;-9.238;0.586;0.275;-0.031;0.007;-0.018;0.015;0.006;2.0;1.9;29.0;50.18;2339;2018-04-16 23:29:20:128
-2.963;-9.31;0.565;-3.239;-9.238;0.586;0.275;-0.031;0.007;-0.013;-0.048;0.012;2.0;1.9;29.1;50.18;2349;2018-04-16 23:29:20:138
-2.97;-9.353;0.603;-3.231;-9.24;0.588;0.269;-0.114;0.003;0.005;-0.144;0.013;2.0;1.9;29.1;50.18;2359;2018-04-16 23:29:20:148
-2.97;-9.353;0.603;-3.231;-9.24;0.588;0.269;-0.114;0.003;0.012;-0.203;0.013;2.1;2.0;29.1;50.18;2369;2018-04-16 23:29:20:158
-2.982;-9.269;0.65;-3.223;-9.242;0.604;0.241;-0.027;0.046;0.012;-0.203;0.013;2.1;2.0;29.1;50.18;2379;2018-04-16 23:29:20:168
-2.988;-9.149;0.676;-3.223;-9.242;0.604;0.241;-0.027;0.046;0.034;-0.25;0.012;2.1;1.9;29.1;50.18;2389;2018-04-16 23:29:20:178
-2.988;-9.149;0.676;-3.22;-9.242;0.629;0.228;0.11;0.05;0.054;-0.276;0.012;2.1;1.9;29.1;50.18;2399;2018-04-16 23:29:20:188
-3.004;-9.142;0.68;-3.22;-9.242;0.629;0.228;0.11;0.05;0.066;-0.274;0.01;2.1;1.9;28.9;50.18;2409;2018-04-16 23:29:20:198
-3.005;-9.227;0.68;-3.216;-9.241;0.658;0.211;0.065;0.031;0.071;-0.257;0.01;2.1;1.9;28.9;50.18;2420;2018-04-16 23:29:20:209
-3.005;-9.227;0.68;-3.216;-9.241;0.658;0.211;0.065;0.031;0.064;-0.221;0.009;2.0;1.8;28.9;50.18;2430;2018-04-16 23:29:20:219
-3.004;-9.312;0.62;-3.213;-9.24;0.684;0.209;-0.072;-0.064;0.057;-0.189;0.007;2.0;1.8;28.9;50.18;2440;2018-04-16 23:29:20:229
-3.032;-9.366;0.496;-3.213;-9.24;0.684;0.209;-0.072;-0.064;0.054;-0.177;0.006;2.0;1.8;29.0;50.18;2449;2018-04-16 23:29:20:238
-3.032;-9.366;0.496;-3.21;-9.24;0.704;0.162;-0.146;-0.237;0.06;-0.186;0.006;2.0;1.8;29.0;50.18;2459;2018-04-16 23:29:20:248
-3.091;-9.354;0.445;-3.21;-9.24;0.704;0.162;-0.146;-0.237;0.067;-0.202;0.002;2.0;1.8;28.9;50.18;2469;2018-04-16 23:29:20:258
-3.122;-9.249;0.432;-3.207;-9.239;0.726;0.103;-0.04;-0.298;0.067;-0.202;0.002;2.0;1.8;28.9;50.18;2479;2018-04-16 23:29:20:268
-3.122;-9.249;0.432;-3.207;-9.239;0.726;0.103;-0.04;-0.298;0.072;-0.215;0.004;2.0;1.7;28.8;50.18;2489;2018-04-16 23:29:20:278
-3.159;-9.213;0.498;-3.204;-9.238;0.749;0.045;0.025;-0.251;0.061;-0.167;0.005;2.0;1.7;28.8;50.18;2500;2018-04-16 23:29:20:289
-3.164;-9.268;0.625;-3.204;-9.238;0.749;0.045;0.025;-0.251;0.043;-0.099;0.01;2.0;1.8;28.8;50.18;2510;2018-04-16 23:29:20:299
-3.164;-9.268;0.625;-3.203;-9.237;0.766;0.043;-0.03;-0.124;0.015;-0.001;0.016;2.0;1.8;28.8;50.18;2520;2018-04-16 23:29:20:309
-3.097;-9.291;0.657;-3.203;-9.237;0.766;0.043;-0.03;-0.124;0.015;-0.001;0.016;1.9;1.8;28.7;50.18;2530;2018-04-16 23:29:20:319
-2.971;-9.245;0.626;-3.204;-9.238;0.757;0.209;-0.012;-0.119;-0.033;0.14;0.017;1.9;1.8;28.7;50.18;2539;2018-04-16 23:29:20:328
-2.971;-9.245;0.626;-3.204;-9.238;0.757;0.209;-0.012;-0.119;-0.054;0.202;0.013;1.9;1.8;28.7;50.18;2549;2018-04-16 23:29:20:338
-2.956;-9.201;0.619;-3.204;-9.24;0.73;0.248;0.039;-0.111;-0.061;0.25;0.006;1.9;1.8;28.7;50.18;2559;2018-04-16 23:29:20:348
-3.01;-9.17;0.651;-3.204;-9.24;0.73;0.248;0.039;-0.111;-0.061;0.25;0.006;1.9;1.8;28.7;50.18;2569;2018-04-16 23:29:20:358
-3.01;-9.17;0.651;-3.206;-9.241;0.702;0.189;0.061;-0.032;-0.055;0.264;0.001;1.9;1.8;28.7;50.18;2579;2018-04-16 23:29:20:368
-3.061;-9.208;0.698;-3.206;-9.241;0.702;0.189;0.061;-0.032;-0.046;0.263;-0.001;1.9;1.8;28.7;50.18;2590;2018-04-16 23:29:20:379
-3.049;-9.257;0.702;-3.208;-9.242;0.678;0.137;0.002;0.008;-0.032;0.253;0.0;1.9;1.8;28.7;50.18;2600;2018-04-16 23:29:20:389
-3.049;-9.257;0.702;-3.208;-9.242;0.678;0.137;0.002;0.008;-0.023;0.243;0.0;1.9;1.8;28.7;51.06;2610;2018-04-16 23:29:20:399
-3.036;-9.251;0.71;-3.209;-9.243;0.659;0.173;-0.008;0.051;-0.011;0.219;-0.001;1.9;1.8;28.7;51.06;2620;2018-04-16 23:29:20:409
-3.021;-9.311;0.682;-3.209;-9.243;0.659;0.173;-0.008;0.051;-0.002;0.189;-0.001;2.0;1.8;28.7;51.06;2630;2018-04-16 23:29:20:419
-3.021;-9.311;0.682;-3.21;-9.244;0.647;0.176;-0.088;0.043;0.009;0.148;0.001;2.0;1.8;28.7;51.06;2639;2018-04-16 23:29:20:428
-3.03;-9.334;0.662;-3.21;-9.244;0.647;0.176;-0.088;0.043;0.009;0.148;0.001;2.0;1.8;28.7;51.06;2649;2018-04-16 23:29:20:438
-3.011;-9.268;0.656;-3.209;-9.244;0.644;0.191;-0.044;0.023;0.023;0.081;0.001;2.0;1.8;28.7;51.06;2659;2018-04-16 23:29:20:448
-3.011;-9.268;0.656;-3.209;-9.244;0.644;0.191;-0.044;0.023;0.029;0.035;0.004;2.0;1.8;28.8;51.06;2669;2018-04-16 23:29:20:458
-2.978;-9.228;0.633;-3.205;-9.245;0.648;0.227;0.017;-0.015;0.029;-0.026;0.004;2.0;1.8;28.8;51.06;2679;2018-04-16 23:29:20:468
-3.006;-9.293;0.59;-3.205;-9.245;0.648;0.227;0.017;-0.015;0.023;-0.071;0.002;2.0;1.8;28.7;51.06;2690;2018-04-16 23:29:20:479
-3.006;-9.293;0.59;-3.2;-9.247;0.654;0.169;-0.07;-0.084;0.023;-0.071;0.002;2.0;1.8;28.7;51.06;2700;2018-04-16 23:29:20:489
-3.044;-9.317;0.56;-3.2;-9.247;0.654;0.169;-0.07;-0.084;0.02;-0.138;0.006;2.0;2.0;28.9;51.06;2710;2018-04-16 23:29:20:499
-3.01;-9.27;0.561;-3.195;-9.248;0.665;0.15;-0.043;-0.108;0.021;-0.211;0.017;2.0;2.0;28.9;51.06;2720;2018-04-16 23:29:20:509
-3.01;-9.27;0.561;-3.195;-9.248;0.665;0.15;-0.043;-0.108;0.026;-0.254;0.018;2.0;1.9;28.9;51.06;2729;2018-04-16 23:29:20:518
-2.977;-9.288;0.607;-3.193;-9.247;0.684;0.215;-0.041;-0.077;0.035;-0.281;0.02;2.0;1.9;28.9;51.06;2739;2018-04-16 23:29:20:528
-2.934;-9.318;0.621;-3.193;-9.247;0.684;0.215;-0.041;-0.077;0.044;-0.293;0.017;2.0;1.9;28.9;51.06;2749;2018-04-16 23:29:20:538
-2.934;-9.318;0.621;-3.189;-9.246;0.71;0.269;-0.098;-0.09;0.051;-0.285;0.013;2.0;1.9;28.9;51.06;2759;2018-04-16 23:29:20:548
-2.927;-9.347;0.601;-3.189;-9.246;0.71;0.269;-0.098;-0.09;0.053;-0.25;0.007;2.0;1.9;28.8;51.06;2769;2018-04-16 23:29:20:558
-2.925;-9.321;0.561;-3.184;-9.246;0.735;0.261;-0.098;-0.155;0.048;-0.217;0.001;2.0;1.9;28.8;51.06;2779;2018-04-16 23:29:20:568
-2.925;-9.321;0.561;-3.184;-9.246;0.735;0.261;-0.098;-0.155;0.04;-0.18;-0.007;2.0;2.0;29.0;51.06;2790;2018-04-16 23:29:20:579
-2.972;-9.264;0.584;-3.179;-9.246;0.754;0.206;-0.018;-0.169;0.026;-0.121;-0.012;2.0;2.0;29.0;51.06;2800;2018-04-16 23:29:20:589
-3.06;-9.14;0.656;-3.179;-9.246;0.754;0.206;-0.018;-0.169;0.002;-0.044;-0.012;2.0;1.9;29.0;51.06;2810;2018-04-16 23:29:20:599
-3.06;-9.14;0.656;-3.175;-9.247;0.758;0.09;0.122;-0.09;-0.021;0.04;-0.011;2.0;1.9;29.0;51.06;2820;2018-04-16 23:29:20:609
-3.154;-9.114;0.674;-3.175;-9.247;0.758;0.09;0.122;-0.09;-0.033;0.108;-0.01;2.0;1.9;29.0;51.06;2829;2018-04-16 23:29:20:618
-3.23;-9.199;0.66;-3.176;-9.248;0.745;-0.047;0.086;-0.079;-0.037;0.158;-0.004;2.0;1.9;29.0;51.06;2839;2018-04-16 23:29:20:628
-3.23;-9.199;0.66;-3.176;-9.248;0.745;-0.047;0.086;-0.079;-0.029;0.192;0.004;2.0;2.0;29.0;51.06;2849;2018-04-16 23:29:20:638
-3.215;-9.26;0.676;-3.18;-9.248;0.726;-0.035;-0.011;-0.049;-0.021;0.217;0.007;2.0;2.0;29.0;51.06;2859;2018-04-16 23:29:20:648
-3.1;-9.316;0.642;-3.18;-9.248;0.726;-0.035;-0.011;-0.049;-0.011;0.225;0.01;2.0;1.9;29.0;51.06;2869;2018-04-16 23:29:20:658
-3.1;-9.316;0.642;-3.184;-9.248;0.708;0.116;-0.06;-0.087;-0.004;0.22;0.01;2.0;1.9;29.0;51.06;2879;2018-04-16 23:29:20:668
-2.98;-9.323;0.585;-3.184;-9.248;0.708;0.116;-0.06;-0.087;0.001;0.199;0.012;2.0;1.9;28.9;51.06;2889;2018-04-16 23:29:20:678
-2.869;-9.322;0.581;-3.187;-9.248;0.694;0.288;-0.089;-0.116;0.009;0.171;0.007;2.0;1.9;28.9;51.06;2900;2018-04-16 23:29:20:689
-2.869;-9.322;0.581;-3.187;-9.248;0.694;0.288;-0.089;-0.116;0.011;0.145;0.006;1.9;1.9;28.9;51.06;2910;2018-04-16 23:29:20:699
-2.85;-9.321;0.6;-3.186;-9.249;0.686;0.336;-0.071;-0.086;0.007;0.128;0.001;1.9;1.9;28.9;51.06;2920;2018-04-16 23:29:20:709
-2.877;-9.282;0.645;-3.186;-9.249;0.686;0.336;-0.071;-0.086;-0.005;0.119;-0.001;1.9;1.8;28.9;51.06;2929;2018-04-16 23:29:20:718
-2.877;-9.282;0.645;-3.183;-9.251;0.676;0.29;-0.029;-0.036;-0.015;0.117;0.0;1.9;1.8;28.9;51.06;2939;2018-04-16 23:29:20:728
-2.942;-9.276;0.631;-3.183;-9.251;0.676;0.29;-0.029;-0.036;-0.023;0.101;-0.004;2.0;1.9;28.9;51.86;2949;2018-04-16 23:29:20:738
-3.051;-9.257;0.642;-3.18;-9.253;0.665;0.158;0.002;-0.017;-0.024;0.072;-0.002;2.0;1.9;28.9;51.86;2959;2018-04-16 23:29:20:748
-3.051;-9.257;0.642;-3.18;-9.253;0.665;0.158;0.002;-0.017;-0.018;0.042;0.001;1.9;1.9;28.9;51.86;2969;2018-04-16 23:29:20:758
-3.081;-9.269;0.663;-3.179;-9.254;0.658;0.097;-0.015;0.005;-0.009;0.01;0.007;1.9;1.9;28.9;51.86;2979;2018-04-16 23:29:20:768
-3.071;-9.293;0.636;-3.179;-9.254;0.658;0.097;-0.015;0.005;0.002;-0.026;0.011;2.0;1.9;29.0;51.86;2989;2018-04-16 23:29:20:778
-3.071;-9.293;0.636;-3.178;-9.254;0.659;0.124;-0.051;-0.032;0.017;-0.057;0.015;2.0;1.9;29.0;51.86;3000;2018-04-16 23:29:20:789
-2.968;-9.286;0.566;-3.178;-9.254;0.659;0.124;-0.051;-0.032;0.031;-0.104;0.017;2.0;1.8;29.1;51.86;3010;2018-04-16 23:29:20:799
-2.853;-9.307;0.487;-3.174;-9.255;0.668;0.295;-0.054;-0.16;0.04;-0.15;0.013;2.0;1.8;29.1;51.86;3019;2018-04-16 23:29:20:808
-2.853;-9.307;0.487;-3.174;-9.255;0.668;0.295;-0.054;-0.16;0.04;-0.15;0.013;2.0;1.8;29.1;51.86;3029;2018-04-16 23:29:20:818
-2.814;-9.312;0.486;-3.17;-9.255;0.676;0.356;-0.057;-0.19;0.044;-0.172;0.012;2.0;1.8;29.1;51.86;3039;2018-04-16 23:29:20:828
-2.86;-9.352;0.585;-3.165;-9.256;0.695;0.305;-0.096;-0.11;0.038;-0.214;0.006;2.0;1.8;29.0;51.86;3049;2018-04-16 23:29:20:838
-2.878;-9.286;0.652;-3.165;-9.256;0.695;0.305;-0.096;-0.11;0.023;-0.183;0.009;2.0;1.8;29.0;51.86;3060;2018-04-16 23:29:20:849
-2.878;-9.286;0.652;-3.162;-9.256;0.706;0.267;0.017;-0.065;-0.001;-0.133;0.009;1.9;1.8;29.0;51.86;3070;2018-04-16 23:29:20:859
-2.94;-9.148;0.609;-3.162;-9.256;0.706;0.267;0.017;-0.065;-0.023;-0.037;0.002;1.9;1.8;29.0;51.86;3080;2018-04-16 23:29:20:869
-3.02;-9.139;0.575;-3.16;-9.257;0.704;0.151;0.134;-0.12;-0.02;-0.016;0.006;1.9;1.8;28.9;51.86;3090;2018-04-16 23:29:20:879
-3.02;-9.139;0.575;-3.16;-9.257;0.704;0.151;0.134;-0.12;-0.006;-0.002;0.006;1.9;1.8;28.9;51.86;3099;2018-04-16 23:29:20:888
-3.06;-9.234;0.608;-3.16;-9.257;0.701;0.1;0.023;-0.092;0.001;0.017;0.009;1.9;1.9;28.8;51.86;3109;2018-04-16 23:29:20:898
-2.951;-9.328;0.607;-3.16;-9.257;0.701;0.1;0.023;-0.092;-0.005;0.042;0.012;1.9;1.9;28.8;51.86;3119;2018-04-16 23:29:20:908
-2.951;-9.328;0.607;-3.158;-9.258;0.695;0.234;-0.081;-0.07;-0.012;0.068;0.011;1.8;1.8;28.9;51.86;3129;2018-04-16 23:29:20:918
-2.844;-9.342;0.6;-3.158;-9.258;0.695;0.234;-0.081;-0.07;-0.027;0.092;0.007;1.8;1.8;28.9;51.86;3139;2018-04-16 23:29:20:928
-2.853;-9.317;0.588;-3.153;-9.261;0.682;0.31;-0.073;-0.102;-0.031;0.099;0.006;1.8;1.8;28.9;51.86;3150;2018-04-16 23:29:20:939
-2.853;-9.317;0.588;-3.153;-9.261;0.682;0.31;-0.073;-0.102;-0.031;0.097;-0.002;1.8;1.8;28.9;51.86;3160;2018-04-16 23:29:20:949
-2.954;-9.244;0.619;-3.149;-9.263;0.669;0.194;0.019;-0.05;-0.022;0.081;-0.007;1.8;1.8;28.9;51.86;3170;2018-04-16 23:29:20:959
-3.057;-9.189;0.684;-3.149;-9.263;0.669;0.194;0.019;-0.05;-0.01;0.067;-0.006;1.8;1.8;28.9;51.86;3180;2018-04-16 23:29:20:969
-3.057;-9.189;0.684;-3.147;-9.264;0.663;0.063;0.082;0.034;0.006;0.065;-0.006;1.8;1.8;28.8;51.86;3189;2018-04-16 23:29:20:978
-3.104;-9.182;0.752;-3.147;-9.264;0.663;0.063;0.082;0.034;0.012;0.073;-0.004;1.8;1.8;28.8;51.86;3199;2018-04-16 23:29:20:988
-3.098;-9.268;0.782;-3.147;-9.264;0.663;0.047;0.024;0.119;0.016;0.098;0.001;1.8;1.8;28.7;51.86;3209;2018-04-16 23:29:20:998
-3.098;-9.268;0.782;-3.147;-9.264;0.663;0.047;0.024;0.119;0.012;0.122;0.006;1.8;1.8;28.7;51.86;3219;2018-04-16 23:29:21:008
-3.042;-9.27;0.71;-3.148;-9.264;0.659;0.106;-0.006;0.051;0.009;0.131;0.009;1.8;1.8;28.7;51.86;3229;2018-04-16 23:29:21:018
-3.008;-9.286;0.626;-3.148;-9.264;0.659;0.106;-0.006;0.051;0.011;0.114;0.012;1.8;1.8;28.7;51.86;3240;2018-04-16 23:29:21:029
-3.008;-9.286;0.626;-3.149;-9.264;0.654;0.148;-0.024;-0.057;0.022;0.076;0.013;1.8;1.8;28.7;51.86;3250;2018-04-16 23:29:21:039
-2.998;-9.325;0.583;-3.149;-9.264;0.654;0.148;-0.024;-0.057;0.032;0.022;0.013;1.8;1.8;28.7;51.86;3260;2018-04-16 23:29:21:049
-2.999;-9.329;0.52;-3.149;-9.264;0.657;0.148;-0.072;-0.111;0.039;-0.032;0.012;1.8;1.8;28.7;51.21;3269;2018-04-16 23:29:21:058
-2.999;-9.329;0.52;-3.149;-9.264;0.657;0.148;-0.072;-0.111;0.043;-0.084;0.012;1.8;1.8;28.7;51.21;3279;2018-04-16 23:29:21:068
-2.947;-9.329;0.517;-3.147;-9.264;0.667;0.2;-0.065;-0.15;0.037;-0.128;0.01;1.8;1.8;28.6;51.21;3289;2018-04-16 23:29:21:078
-2.889;-9.313;0.549;-3.147;-9.264;0.667;0.2;-0.065;-0.15;0.032;-0.165;0.01;1.8;1.8;28.6;51.21;3299;2018-04-16 23:29:21:088
-2.889;-9.313;0.549;-3.143;-9.264;0.681;0.252;-0.043;-0.126;0.027;-0.183;0.007;1.8;1.8;28.6;51.21;3309;2018-04-16 23:29:21:098
-2.891;-9.282;0.6;-3.143;-9.264;0.681;0.252;-0.043;-0.126;0.021;-0.184;0.009;1.8;1.8;28.6;51.21;3319;2018-04-16 23:29:21:108
-2.94;-9.268;0.638;-3.14;-9.264;0.696;0.218;-0.007;-0.079;0.022;-0.166;0.005;1.8;1.8;28.6;51.21;3329;2018-04-16 23:29:21:118
-2.94;-9.268;0.638;-3.14;-9.264;0.696;0.218;-0.007;-0.079;0.028;-0.144;0.006;1.8;1.8;28.6;51.21;3340;2018-04-16 23:29:21:129
-2.969;-9.213;0.64;-3.137;-9.264;0.71;0.168;0.051;-0.069;0.028;-0.106;0.01;1.8;1.8;28.6;51.21;3350;2018-04-16 23:29:21:139
-2.952;-9.212;0.626;-3.137;-9.264;0.71;0.168;0.051;-0.069;0.013;-0.062;0.01;1.8;1.8;28.6;51.21;3360;2018-04-16 23:29:21:149
-2.952;-9.212;0.626;-3.136;-9.264;0.716;0.197;0.061;-0.083;-0.004;-0.022;0.01;1.8;1.9;28.6;51.21;3369;2018-04-16 23:29:21:158
-2.923;-9.239;0.608;-3.136;-9.264;0.716;0.197;0.061;-0.083;-0.027;0.026;0.01;1.8;1.9;28.6;51.21;3380;2018-04-16 23:29:21:169
-2.99;-9.347;0.622;-3.135;-9.265;0.708;0.177;-0.04;-0.099;-0.027;0.026;0.01;1.8;1.9;28.6;51.21;3390;2018-04-16 23:29:21:179
-2.99;-9.347;0.622;-3.135;-9.265;0.708;0.177;-0.04;-0.099;-0.059;0.071;0.001;1.8;1.9;28.6;51.21;3399;2018-04-16 23:29:21:188
-3.069;-9.361;0.615;-3.134;-9.267;0.69;0.065;-0.095;-0.075;-0.065;0.073;0.004;1.8;1.9;28.6;51.21;3409;2018-04-16 23:29:21:198
-3.109;-9.29;0.594;-3.134;-9.267;0.69;0.065;-0.095;-0.075;-0.037;0.032;0.004;1.8;1.9;28.5;51.21;3419;2018-04-16 23:29:21:208
-3.109;-9.29;0.594;-3.135;-9.267;0.68;0.025;-0.022;-0.093;-0.023;0.005;0.004;1.8;1.9;28.5;51.21;3429;2018-04-16 23:29:21:218
-3.081;-9.267;0.648;-3.135;-9.267;0.68;0.025;-0.022;-0.093;0.027;-0.064;0.007;1.8;1.9;28.7;51.21;3440;2018-04-16 23:29:21:229
-3.007;-9.227;0.775;-3.134;-9.267;0.689;0.084;0.027;0.054;0.038;-0.059;0.012;1.8;1.9;28.7;51.21;3449;2018-04-16 23:29:21:238
-3.007;-9.227;0.775;-3.134;-9.267;0.689;0.084;0.027;0.054;0.027;-0.007;0.01;1.8;1.9;28.6;51.21;3459;2018-04-16 23:29:21:248
-2.91;-9.175;0.781;-3.133;-9.267;0.694;0.223;0.092;0.086;0.012;0.027;0.009;1.8;1.9;28.6;51.21;3470;2018-04-16 23:29:21:259
-2.91;-9.175;0.781;-3.133;-9.267;0.694;0.223;0.092;0.086;0.012;0.027;0.009;1.8;1.9;28.7;51.21;3480;2018-04-16 23:29:21:269
-2.904;-9.243;0.716;-3.132;-9.268;0.682;0.227;0.025;0.034;-0.042;0.131;0.004;1.8;1.9;28.8;51.21;3489;2018-04-16 23:29:21:278
-3.062;-9.301;0.735;-3.132;-9.268;0.682;0.227;0.025;0.034;-0.05;0.147;-0.004;1.8;1.9;28.8;51.21;3499;2018-04-16 23:29:21:288
-3.062;-9.301;0.735;-3.132;-9.269;0.665;0.046;-0.032;0.084;-0.05;0.147;-0.004;1.8;1.9;28.8;51.21;3509;2018-04-16 23:29:21:298
-3.132;-9.262;0.736;-3.132;-9.269;0.665;0.046;-0.032;0.084;-0.035;0.125;0.0;1.8;1.9;28.8;51.21;3520;2018-04-16 23:29:21:309
-3.152;-9.244;0.646;-3.133;-9.269;0.655;-0.013;0.036;0.021;-0.009;0.088;0.004;1.8;2.0;28.9;51.21;3530;2018-04-16 23:29:21:319
-3.152;-9.244;0.646;-3.133;-9.269;0.655;-0.013;0.036;0.021;0.018;0.023;0.006;1.8;2.0;28.9;51.21;3540;2018-04-16 23:29:21:329
-3.127;-9.276;0.662;-3.135;-9.268;0.661;0.009;-0.008;0.001;0.044;-0.034;0.015;1.8;1.9;28.9;51.21;3550;2018-04-16 23:29:21:339
-3.134;-9.315;0.731;-3.135;-9.268;0.661;0.009;-0.008;0.001;0.049;-0.084;0.016;1.8;1.9;28.9;51.21;3559;2018-04-16 23:29:21:348
-3.134;-9.315;0.731;-3.137;-9.267;0.675;0.025;-0.049;0.056;0.038;-0.082;0.024;1.9;2.0;29.0;51.21;3569;2018-04-16 23:29:21:358
-3.075;-9.288;0.743;-3.137;-9.267;0.675;0.025;-0.049;0.056;0.038;-0.082;0.024;1.9;2.0;29.0;51.21;3579;2018-04-16 23:29:21:368
-2.987;-9.263;0.71;-3.141;-9.265;0.683;0.13;-0.002;0.024;0.012;-0.053;0.034;1.9;2.0;29.2;51.2;3590;2018-04-16 23:29:21:379
-2.987;-9.263;0.71;-3.141;-9.265;0.683;0.13;-0.002;0.024;0.006;-0.04;0.035;1.9;2.0;29.2;51.2;3600;2018-04-16 23:29:21:389
-2.921;-9.261;0.656;-3.144;-9.264;0.687;0.223;0.003;-0.031;0.007;-0.046;0.033;2.0;2.0;29.1;51.2;3610;2018-04-16 23:29:21:399
-2.921;-9.261;0.656;-3.144;-9.264;0.687;0.223;0.003;-0.031;0.007;-0.046;0.024;2.0;2.0;29.1;51.2;3619;2018-04-16 23:29:21:408
-2.89;-9.227;0.642;-3.144;-9.263;0.695;0.257;0.027;-0.063;0.035;-0.077;0.024;2.0;2.0;29.1;51.2;3632;2018-04-16 23:29:21:421
-2.927;-9.268;0.639;-3.144;-9.263;0.695;0.257;0.027;-0.063;0.039;-0.082;0.022;2.0;2.0;29.3;51.2;3640;2018-04-16 23:29:21:429
-2.954;-9.33;0.6;-3.143;-9.262;0.707;0.189;-0.059;-0.095;0.043;-0.089;0.02;2.0;2.0;29.4;51.2;3649;2018-04-16 23:29:21:438
-2.954;-9.33;0.6;-3.143;-9.262;0.707;0.189;-0.059;-0.095;0.045;-0.093;0.018;2.0;2.0;29.4;51.2;3660;2018-04-16 23:29:21:449
-2.953;-9.345;0.585;-3.142;-9.262;0.719;0.195;-0.089;-0.113;0.044;-0.09;0.017;2.0;2.0;29.3;51.2;3670;2018-04-16 23:29:21:459
-2.947;-9.33;0.612;-3.142;-9.262;0.719;0.195;-0.089;-0.113;0.039;-0.075;0.017;2.0;2.0;29.5;51.2;3680;2018-04-16 23:29:21:469
-2.934;-9.294;0.6;-3.142;-9.261;0.728;0.198;-0.062;-0.124;0.033;-0.056;0.016;2.0;2.0;29.5;51.2;3689;2018-04-16 23:29:21:478
-2.947;-9.287;0.587;-3.142;-9.261;0.728;0.198;-0.062;-0.124;0.022;-0.031;0.013;2.0;2.0;29.6;51.2;3700;2018-04-16 23:29:21:489
-2.947;-9.287;0.587;-3.141;-9.261;0.73;0.208;-0.003;-0.143;0.011;0.002;0.01;2.0;2.0;29.6;51.2;3710;2018-04-16 23:29:21:499
-2.97;-9.24;0.614;-3.141;-9.261;0.73;0.171;0.021;-0.115;0.004;0.032;0.005;2.1;2.0;29.7;51.2;3722;2018-04-16 23:29:21:511
-3.047;-9.242;0.596;-3.141;-9.261;0.73;0.171;0.021;-0.115;0.004;0.032;0.005;2.1;2.0;29.7;51.2;3730;2018-04-16 23:29:21:519
-3.047;-9.242;0.596;-3.141;-9.262;0.722;0.064;0.018;-0.127;-0.013;0.075;0.006;2.1;2.0;29.7;51.2;3739;2018-04-16 23:29:21:528
-3.093;-9.274;0.6;-3.141;-9.262;0.722;0.064;0.018;-0.127;-0.022;0.092;0.01;2.1;2.0;29.7;51.2;3750;2018-04-16 23:29:21:539
-3.117;-9.309;0.583;-3.144;-9.262;0.709;0.024;-0.024;-0.138;-0.024;0.089;0.018;2.1;2.0;29.8;51.2;3760;2018-04-16 23:29:21:549
-3.117;-9.309;0.583;-3.144;-9.262;0.709;0.024;-0.024;-0.138;-0.024;0.078;0.022;2.1;2.0;29.8;51.2;3770;2018-04-16 23:29:21:559
-3.057;-9.317;0.614;-3.148;-9.261;0.699;0.091;-0.056;-0.085;-0.024;0.078;0.022;2.1;2.1;29.7;51.2;3780;2018-04-16 23:29:21:569
-2.923;-9.221;0.684;-3.148;-9.261;0.699;0.091;-0.056;-0.085;-0.02;0.07;0.032;2.1;2.1;29.7;51.2;3790;2018-04-16 23:29:21:579
-2.923;-9.221;0.684;-3.153;-9.26;0.69;0.263;0.055;-0.004;-0.033;0.09;0.022;2.1;2.1;29.7;51.2;3799;2018-04-16 23:29:21:588
-2.853;-9.191;0.722;-3.153;-9.26;0.69;0.263;0.055;-0.004;-0.049;0.119;0.016;2.1;2.1;29.7;51.2;3810;2018-04-16 23:29:21:599
-2.966;-9.222;0.753;-3.154;-9.261;0.674;0.244;0.059;0.057;-0.059;0.143;0.005;2.2;2.1;29.9;51.2;3819;2018-04-16 23:29:21:608
-2.966;-9.222;0.753;-3.154;-9.261;0.674;0.244;0.059;0.057;-0.065;0.151;-0.001;2.2;2.1;29.9;51.2;3829;2018-04-16 23:29:21:618
-3.148;-9.195;0.76;-3.155;-9.262;0.654;0.007;0.067;0.106;-0.05;0.14;-0.004;2.1;2.1;29.9;51.2;3839;2018-04-16 23:29:21:628
-3.266;-9.181;0.735;-3.155;-9.262;0.654;0.007;0.067;0.106;-0.05;0.14;-0.004;2.1;2.1;29.9;51.2;3849;2018-04-16 23:29:21:638
-3.266;-9.181;0.735;-3.158;-9.262;0.643;-0.094;0.08;0.074;-0.006;0.09;0.007;2.1;2.2;29.9;51.2;3860;2018-04-16 23:29:21:649
-3.243;-9.183;0.681;-3.158;-9.262;0.643;-0.094;0.08;0.074;0.027;0.045;0.01;2.1;2.2;29.9;51.2;3870;2018-04-16 23:29:21:659
-3.17;-9.256;0.649;-3.162;-9.26;0.649;-0.04;0.02;0.003;0.051;-0.004;0.021;2.1;2.2;29.8;51.2;3880;2018-04-16 23:29:21:669
-3.17;-9.256;0.649;-3.162;-9.26;0.649;-0.04;0.02;0.003;0.054;-0.037;0.027;2.1;2.2;29.8;51.2;3890;2018-04-16 23:29:21:679
-3.063;-9.284;0.62;-3.166;-9.258;0.661;0.103;-0.026;-0.041;0.044;-0.059;0.034;2.1;2.2;29.7;51.2;3899;2018-04-16 23:29:21:688
-2.97;-9.276;0.572;-3.166;-9.258;0.661;0.103;-0.026;-0.041;0.029;-0.066;0.038;2.1;2.2;29.7;50.44;3910;2018-04-16 23:29:21:699
-2.97;-9.276;0.572;-3.17;-9.256;0.669;0.221;-0.009;-0.101;0.01;-0.111;0.034;2.1;2.2;29.8;50.44;3920;2018-04-16 23:29:21:709
-2.963;-9.225;0.585;-3.172;-9.255;0.674;0.209;0.03;-0.088;0.012;-0.134;0.034;2.1;2.2;29.8;50.44;3929;2018-04-16 23:29:21:718
-3.005;-9.194;0.668;-3.172;-9.255;0.674;0.209;0.03;-0.088;0.02;-0.144;0.028;2.1;2.3;29.7;50.44;3939;2018-04-16 23:29:21:728
-3.005;-9.194;0.668;-3.173;-9.254;0.686;0.154;0.063;0.003;0.031;-0.134;0.024;2.1;2.3;29.7;50.44;3949;2018-04-16 23:29:21:738
-3.093;-9.196;0.74;-3.173;-9.254;0.686;0.154;0.063;0.003;0.038;-0.109;0.02;2.0;2.3;29.8;50.44;3960;2018-04-16 23:29:21:749
-3.16;-9.248;0.775;-3.175;-9.252;0.7;0.023;0.021;0.067;0.044;-0.068;0.018;2.0;2.3;29.8;50.44;3969;2018-04-16 23:29:21:758
-3.16;-9.248;0.775;-3.175;-9.252;0.7;0.023;0.021;0.067;0.044;-0.028;0.018;2.0;2.3;29.6;50.44;3979;2018-04-16 23:29:21:768
-3.127;-9.269;0.69;-3.178;-9.25;0.71;0.051;-0.019;-0.021;0.05;0.007;0.02;2.0;2.3;29.6;50.44;3991;2018-04-16 23:29:21:780
-3.054;-9.264;0.582;-3.179;-9.249;0.713;0.126;-0.015;-0.132;0.053;0.018;0.021;2.0;2.3;29.7;50.44;4000;2018-04-16 23:29:21:789
-2.982;-9.278;0.491;-3.179;-9.249;0.713;0.198;-0.029;-0.226;0.053;0.018;0.021;2.0;2.3;29.7;50.44;4010;2018-04-16 23:29:21:799
-2.982;-9.278;0.491;-3.18;-9.249;0.72;0.198;-0.029;-0.226;0.059;-0.02;0.018;2.1;2.3;29.7;50.44;4020;2018-04-16 23:29:21:809
-2.92;-9.352;0.397;-3.18;-9.249;0.72;0.259;-0.103;-0.328;0.061;-0.054;0.013;2.1;2.3;29.7;50.44;4029;2018-04-16 23:29:21:818
-2.947;-9.351;0.433;-3.177;-9.249;0.729;0.259;-0.103;-0.328;0.05;-0.075;0.011;2.0;2.3;29.6;50.44;4039;2018-04-16 23:29:21:828
-2.947;-9.351;0.433;-3.177;-9.249;0.729;0.214;-0.076;-0.28;0.035;-0.081;0.004;2.0;2.3;29.6;50.44;4050;2018-04-16 23:29:21:839
-3.035;-9.263;0.497;-3.174;-9.249;0.735;0.214;-0.076;-0.28;0.002;-0.059;-0.005;2.0;2.3;29.6;50.44;4060;2018-04-16 23:29:21:849
-3.035;-9.263;0.497;-3.174;-9.249;0.735;0.062;0.054;-0.202;0.002;-0.059;-0.005;2.0;2.3;29.6;50.44;4069;2018-04-16 23:29:21:858
-3.148;-9.177;0.566;-3.173;-9.25;0.732;-0.028;0.091;-0.135;-0.016;-0.032;-0.006;2.0;2.3;29.7;50.44;4080;2018-04-16 23:29:21:869
-3.269;-9.161;0.68;-3.173;-9.25;0.732;-0.028;0.091;-0.135;-0.034;0.026;-0.005;2.0;2.3;29.7;50.44;4089;2018-04-16 23:29:21:878
-3.269;-9.161;0.68;-3.176;-9.25;0.722;-0.134;0.067;0.0;-0.048;0.101;0.004;2.0;2.3;29.7;50.44;4100;2018-04-16 23:29:21:889
-3.311;-9.242;0.755;-3.176;-9.25;0.722;-0.134;0.067;0.0;-0.051;0.154;0.011;2.0;2.3;29.7;50.44;4110;2018-04-16 23:29:21:899
-3.212;-9.282;0.717;-3.181;-9.25;0.704;-0.081;-0.035;0.041;-0.044;0.186;0.02;2.0;2.3;29.7;50.44;4120;2018-04-16 23:29:21:909
-3.212;-9.282;0.717;-3.184;-9.249;0.692;0.02;-0.037;-0.021;-0.044;0.186;0.02;2.0;2.3;29.4;50.44;4130;2018-04-16 23:29:21:919
-3.053;-9.267;0.627;-3.184;-9.249;0.692;0.02;-0.037;-0.021;-0.031;0.195;0.026;2.0;2.3;29.4;50.44;4140;2018-04-16 23:29:21:929
-2.974;-9.215;0.584;-3.189;-9.249;0.676;0.216;0.034;-0.092;-0.016;0.172;0.022;2.0;2.4;29.4;50.44;4150;2018-04-16 23:29:21:939
-2.974;-9.215;0.584;-3.189;-9.249;0.676;0.216;0.034;-0.092;-0.006;0.134;0.021;2.0;2.4;29.4;50.44;4160;2018-04-16 23:29:21:949
-2.907;-9.116;0.573;-3.192;-9.248;0.667;0.293;0.135;-0.067;0.002;0.099;0.017;2.0;2.4;29.5;50.44;4170;2018-04-16 23:29:21:959
-2.913;-9.14;0.657;-3.192;-9.248;0.667;0.293;0.135;-0.067;0.006;0.07;0.012;2.0;2.3;29.4;50.44;4179;2018-04-16 23:29:21:968
-2.913;-9.14;0.657;-3.193;-9.249;0.664;0.267;0.063;0.034;0.006;0.07;0.012;2.0;2.3;29.4;50.44;4190;2018-04-16 23:29:21:979
-2.952;-9.236;0.735;-3.193;-9.249;0.664;0.267;0.063;0.034;-0.02;0.076;0.002;2.0;2.3;29.4;50.44;4199;2018-04-16 23:29:21:988
-2.952;-9.236;0.735;-3.192;-9.249;0.654;0.223;-0.014;0.097;-0.027;0.088;0.001;2.0;2.3;29.4;50.44;4210;2018-04-16 23:29:21:999
-3.049;-9.293;0.712;-3.192;-9.249;0.654;0.223;-0.014;0.097;-0.026;0.076;-0.001;2.0;2.3;29.4;50.44;4219;2018-04-16 23:29:22:008
-3.092;-9.301;0.651;-3.192;-9.25;0.646;0.119;-0.054;0.021;-0.004;0.028;-0.001;1.9;2.2;29.5;50.44;4230;2018-04-16 23:29:22:019
-3.092;-9.301;0.651;-3.192;-9.25;0.646;0.119;-0.054;0.021;0.034;-0.038;0.0;1.9;2.2;29.5;50.44;4239;2018-04-16 23:29:22:028
-3.115;-9.28;0.624;-3.19;-9.25;0.655;0.075;-0.03;-0.031;0.067;-0.1;-0.002;1.9;2.2;29.5;51.16;4250;2018-04-16 23:29:22:039
-3.128;-9.24;0.603;-3.19;-9.25;0.655;0.075;-0.03;-0.031;0.087;-0.144;0.0;1.9;2.2;29.5;51.16;4259;2018-04-16 23:29:22:048
-3.128;-9.24;0.603;-3.187;-9.249;0.679;0.082;0.011;-0.104;0.087;-0.144;0.0;1.9;2.2;29.5;51.16;4269;2018-04-16 23:29:22:058
-3.097;-9.22;0.559;-3.187;-9.249;0.679;0.082;0.011;-0.104;0.097;-0.173;0.001;1.9;2.2;29.5;51.16;4280;2018-04-16 23:29:22:069
-3.069;-9.22;0.528;-3.185;-9.248;0.707;0.116;0.028;-0.179;0.092;-0.203;0.009;1.8;2.2;29.5;51.16;4290;2018-04-16 23:29:22:079
-3.035;-9.218;0.567;-3.185;-9.248;0.707;0.116;0.028;-0.179;0.072;-0.194;0.018;1.8;2.2;29.5;51.16;4299;2018-04-16 23:29:22:088
-3.035;-9.218;0.567;-3.184;-9.247;0.73;0.159;0.031;-0.131;0.045;-0.156;0.02;1.8;2.2;29.5;51.16;4310;2018-04-16 23:29:22:099
-3.007;-9.27;0.633;-3.184;-9.247;0.73;0.159;0.031;-0.131;0.011;-0.099;0.02;1.8;2.2;29.5;51.16;4319;2018-04-16 23:29:22:108
-3.043;-9.324;0.587;-3.184;-9.246;0.737;0.162;-0.085;-0.112;-0.018;-0.043;0.017;1.8;2.2;29.5;51.16;4330;2018-04-16 23:29:22:119
-3.043;-9.324;0.587;-3.184;-9.246;0.737;0.162;-0.085;-0.112;-0.034;-0.006;0.015;1.8;2.2;29.5;51.16;4340;2018-04-16 23:29:22:129
-3.051;-9.297;0.554;-3.186;-9.246;0.729;0.134;-0.051;-0.175;-0.034;-0.006;0.015;1.8;2.2;29.5;51.16;4349;2018-04-16 23:29:22:138
-3.086;-9.257;0.542;-3.186;-9.246;0.729;0.134;-0.051;-0.175;-0.031;0.001;0.013;1.8;2.3;29.4;51.16;4360;2018-04-16 23:29:22:149
-3.086;-9.257;0.542;-3.186;-9.246;0.726;0.083;-0.013;-0.171;-0.007;-0.032;0.006;1.8;2.2;29.4;51.16;4370;2018-04-16 23:29:22:159
-3.138;-9.262;0.613;-3.186;-9.246;0.726;0.083;-0.013;-0.171;0.013;-0.05;0.004;1.8;2.2;29.4;51.16;4379;2018-04-16 23:29:22:168
-3.138;-9.262;0.613;-3.185;-9.246;0.732;0.037;-0.043;-0.059;0.035;-0.046;0.002;1.8;2.2;29.4;51.16;4389;2018-04-16 23:29:22:178
-3.168;-9.288;0.687;-3.185;-9.246;0.732;0.037;-0.043;-0.059;0.035;-0.046;0.002;1.8;2.2;29.4;51.16;4400;2018-04-16 23:29:22:189
-3.156;-9.246;0.73;-3.185;-9.246;0.732;0.037;-0.043;-0.059;0.031;0.013;0.004;1.8;2.2;29.3;51.16;4410;2018-04-16 23:29:22:199
-3.2;-9.214;0.69;-3.185;-9.246;0.737;0.014;-0.003;0.01;0.006;0.142;0.001;1.8;2.2;29.4;51.16;4419;2018-04-16 23:29:22:208
-3.2;-9.214;0.69;-3.188;-9.245;0.729;-0.038;0.035;-0.049;-0.007;0.187;0.006;1.8;2.2;29.4;51.16;4429;2018-04-16 23:29:22:218
-3.266;-9.202;0.656;-3.188;-9.245;0.729;-0.038;0.035;-0.049;-0.006;0.22;0.01;1.8;2.2;29.5;51.16;4439;2018-04-16 23:29:22:228
-3.299;-9.205;0.664;-3.193;-9.245;0.713;-0.106;0.04;-0.049;-0.015;0.226;0.018;1.8;2.2;29.5;51.16;4450;2018-04-16 23:29:22:239
-3.332;-9.227;0.636;-3.193;-9.245;0.713;-0.106;0.04;-0.049;-0.015;0.226;0.018;1.8;2.2;29.5;51.16;4460;2018-04-16 23:29:22:249
-3.332;-9.227;0.636;-3.202;-9.243;0.695;-0.126;0.028;-0.057;-0.015;0.224;0.028;1.8;2.2;29.5;51.16;4470;2018-04-16 23:29:22:259
-3.287;-9.205;0.579;-3.202;-9.243;0.695;-0.126;0.028;-0.057;-0.022;0.193;0.043;1.8;2.2;29.4;51.16;4480;2018-04-16 23:29:22:269
-3.287;-9.205;0.579;-3.214;-9.24;0.679;-0.05;0.063;-0.107;-0.02;0.156;0.049;1.8;2.2;29.4;51.16;4490;2018-04-16 23:29:22:279
-3.251;-9.161;0.578;-3.214;-9.24;0.679;-0.05;0.063;-0.107;-0.013;0.111;0.054;1.8;2.2;29.4;51.16;4500;2018-04-16 23:29:22:289
-3.242;-9.121;0.648;-3.226;-9.236;0.671;-0.016;0.116;-0.023;-0.002;0.067;0.061;1.8;2.2;29.5;51.16;4510;2018-04-16 23:29:22:299
-3.221;-9.118;0.709;-3.226;-9.236;0.671;-0.016;0.116;-0.023;-0.002;0.067;0.061;1.8;2.3;29.4;51.16;4520;2018-04-16 23:29:22:309
-3.221;-9.118;0.709;-3.239;-9.232;0.67;0.007;0.126;0.052;0.015;0.05;0.065;1.8;2.3;29.4;51.16;4530;2018-04-16 23:29:22:319
-3.212;-9.142;0.706;-3.239;-9.232;0.67;0.007;0.126;0.052;0.045;0.038;0.066;1.8;2.4;29.4;51.16;4539;2018-04-16 23:29:22:328
-3.183;-9.207;0.636;-3.251;-9.227;0.676;0.054;0.047;-0.006;0.071;0.021;0.064;1.8;2.4;29.4;51.16;4550;2018-04-16 23:29:22:339
-3.183;-9.207;0.636;-3.251;-9.227;0.676;0.054;0.047;-0.006;0.094;-0.002;0.06;1.8;2.3;29.4;51.16;4559;2018-04-16 23:29:22:348
-3.11;-9.276;0.528;-3.261;-9.223;0.693;0.151;-0.054;-0.165;0.115;-0.026;0.056;1.8;2.3;29.4;50.26;4569;2018-04-16 23:29:22:358
-3.007;-9.312;0.4;-3.261;-9.223;0.693;0.151;-0.054;-0.165;0.116;-0.056;0.048;1.8;2.4;29.5;50.26;4580;2018-04-16 23:29:22:369
-3.007;-9.312;0.4;-3.266;-9.219;0.715;0.253;-0.115;-0.337;0.116;-0.083;0.042;1.8;2.4;29.5;50.26;4589;2018-04-16 23:29:22:378
-2.952;-9.303;0.309;-3.266;-9.219;0.715;0.253;-0.115;-0.337;0.099;-0.104;0.039;1.8;2.4;29.5;50.26;4600;2018-04-16 23:29:22:389
-2.887;-9.213;0.31;-3.268;-9.217;0.736;0.35;-0.025;-0.433;0.072;-0.109;0.028;1.8;2.4;29.5;50.26;4609;2018-04-16 23:29:22:398
-2.887;-9.213;0.31;-3.268;-9.217;0.736;0.35;-0.025;-0.433;0.072;-0.109;0.028;1.8;2.4;29.5;50.26;4620;2018-04-16 23:29:22:409
-2.86;-9.164;0.298;-3.267;-9.216;0.747;0.414;0.063;-0.456;0.044;-0.11;0.022;1.8;2.4;29.5;50.26;4630;2018-04-16 23:29:22:419
-2.875;-9.166;0.34;-3.266;-9.216;0.748;0.391;0.05;-0.408;0.021;-0.104;0.015;1.7;2.3;29.5;50.26;4640;2018-04-16 23:29:22:429
-2.875;-9.166;0.34;-3.266;-9.216;0.748;0.391;0.05;-0.408;0.006;-0.099;-0.001;1.7;2.3;29.5;50.26;4650;2018-04-16 23:29:22:439
-2.974;-9.205;0.424;-3.261;-9.218;0.753;0.26;0.019;-0.293;0.006;-0.099;-0.001;1.7;2.3;29.5;50.26;4660;2018-04-16 23:29:22:449
-3.013;-9.19;0.521;-3.257;-9.219;0.756;0.219;0.045;-0.203;0.018;-0.083;-0.016;1.7;2.3;29.5;50.26;4671;2018-04-16 23:29:22:460
-3.105;-9.122;0.637;-3.257;-9.219;0.756;0.219;0.045;-0.203;0.039;-0.024;-0.037;1.6;2.4;29.4;50.26;4680;2018-04-16 23:29:22:469
-3.191;-9.09;0.679;-3.249;-9.221;0.763;0.058;0.132;-0.085;0.051;0.032;-0.048;1.6;2.4;29.4;50.26;4690;2018-04-16 23:29:22:479
-3.191;-9.09;0.679;-3.249;-9.221;0.763;0.058;0.132;-0.085;0.062;0.134;-0.061;1.7;2.4;29.5;50.26;4699;2018-04-16 23:29:22:488
-3.351;-9.137;0.652;-3.241;-9.224;0.765;-0.11;0.087;-0.113;0.081;0.206;-0.07;1.7;2.4;29.5;50.26;4710;2018-04-16 23:29:22:499
-3.351;-9.137;0.652;-3.241;-9.224;0.765;-0.11;0.087;-0.113;0.081;0.206;-0.07;1.7;2.4;29.5;50.26;4719;2018-04-16 23:29:22:508
-3.36;-9.123;0.515;-3.233;-9.227;0.767;-0.128;0.104;-0.252;0.103;0.202;-0.065;1.6;2.4;29.6;50.26;4730;2018-04-16 23:29:22:519
-3.309;-9.146;0.411;-3.233;-9.227;0.767;-0.128;0.104;-0.252;0.14;0.171;-0.061;1.6;2.4;29.6;50.26;4739;2018-04-16 23:29:22:528
-3.309;-9.146;0.411;-3.224;-9.228;0.782;-0.052;0.043;-0.435;0.171;0.123;-0.064;1.6;2.4;29.6;50.26;4750;2018-04-16 23:29:22:539
-3.275;-9.237;0.309;-3.224;-9.228;0.782;-0.052;0.043;-0.435;0.199;0.037;-0.067;1.6;2.4;29.6;50.26;4760;2018-04-16 23:29:22:549
-3.286;-9.212;0.277;-3.213;-9.23;0.811;-0.073;0.018;-0.534;0.193;0.013;-0.068;1.6;2.4;29.6;50.26;4770;2018-04-16 23:29:22:559
-3.286;-9.212;0.277;-3.213;-9.23;0.811;-0.073;0.018;-0.534;0.193;0.013;-0.068;1.6;2.4;29.7;50.26;4780;2018-04-16 23:29:22:569
-3.262;-9.164;0.189;-3.203;-9.231;0.838;-0.06;0.067;-0.649;0.171;-0.021;-0.061;1.6;2.4;29.7;50.26;4790;2018-04-16 23:29:22:579
-3.229;-9.188;0.154;-3.203;-9.231;0.838;-0.06;0.067;-0.649;0.156;-0.046;-0.059;1.5;2.4;29.7;50.26;4799;2018-04-16 23:29:22:588
-3.229;-9.188;0.154;-3.191;-9.233;0.861;-0.036;0.014;-0.693;0.136;-0.064;-0.06;1.5;2.4;29.7;50.26;4810;2018-04-16 23:29:22:599
-3.238;-9.248;0.174;-3.191;-9.233;0.861;-0.036;0.014;-0.693;0.109;-0.072;-0.066;1.5;2.5;29.7;50.26;4820;2018-04-16 23:29:22:609
-3.29;-9.339;0.229;-3.179;-9.236;0.877;-0.111;-0.103;-0.648;0.081;-0.065;-0.062;1.5;2.5;29.7;50.26;4829;2018-04-16 23:29:22:618
-3.369;-9.373;0.236;-3.179;-9.236;0.877;-0.111;-0.103;-0.648;0.042;-0.038;-0.065;1.5;2.5;29.8;50.26;4840;2018-04-16 23:29:22:629
-3.369;-9.373;0.236;-3.167;-9.239;0.881;-0.229;-0.132;-0.652;0.042;-0.038;-0.065;1.6;2.6;29.7;50.26;4850;2018-04-16 23:29:22:639
-3.426;-9.329;0.23;-3.167;-9.239;0.881;-0.229;-0.132;-0.652;0.006;-0.002;-0.066;1.6;2.6;29.7;50.26;4859;2018-04-16 23:29:22:648
-3.461;-9.273;0.249;-3.158;-9.243;0.877;-0.303;-0.03;-0.628;0.006;-0.002;-0.066;1.6;2.7;29.7;50.26;4870;2018-04-16 23:29:22:659
-3.461;-9.273;0.249;-3.158;-9.243;0.877;-0.303;-0.03;-0.628;-0.015;0.035;-0.068;1.6;2.7;29.7;50.26;4879;2018-04-16 23:29:22:668
-3.633;-9.155;0.31;-3.15;-9.247;0.864;-0.483;0.091;-0.554;-0.027;0.073;-0.064;1.6;2.7;29.7;49.98;4889;2018-04-16 23:29:22:678
-3.685;-8.961;0.342;-3.15;-9.247;0.864;-0.483;0.091;-0.554;-0.04;0.144;-0.05;1.6;2.7;29.7;49.98;4900;2018-04-16 23:29:22:689
-3.685;-8.961;0.342;-3.15;-9.249;0.842;-0.564;0.34;-0.508;-0.045;0.197;-0.031;1.6;2.8;29.8;49.98;4909;2018-04-16 23:29:22:698
-3.753;-8.893;0.317;-3.15;-9.249;0.842;-0.564;0.34;-0.508;-0.045;0.197;-0.031;1.6;2.8;29.8;49.98;4920;2018-04-16 23:29:22:709
-3.773;-8.891;0.284;-3.161;-9.247;0.815;-0.612;0.357;-0.531;-0.028;0.266;0.016;1.6;2.8;29.7;49.98;4929;2018-04-16 23:29:22:718
-3.737;-8.885;0.194;-3.171;-9.245;0.802;-0.567;0.36;-0.608;-0.016;0.297;0.054;1.6;2.8;29.7;49.98;4940;2018-04-16 23:29:22:729
-3.668;-8.818;0.148;-3.186;-9.241;0.788;-0.482;0.423;-0.639;-0.011;0.305;0.077;1.6;2.8;29.7;49.98;4950;2018-04-16 23:29:22:739
-3.668;-8.818;0.148;-3.186;-9.241;0.788;-0.482;0.423;-0.639;-0.011;0.305;0.077;1.6;2.8;29.7;49.98;4959;2018-04-16 23:29:22:748
-3.482;-8.696;0.069;-3.224;-9.231;0.752;-0.258;0.535;-0.682;-0.07;0.356;0.181;1.6;2.9;29.8;49.98;4970;2018-04-16 23:29:22:759
-3.482;-8.696;0.069;-3.224;-9.231;0.752;-0.258;0.535;-0.682;-0.155;0.401;0.216;1.6;2.9;29.8;49.98;4979;2018-04-16 23:29:22:768
-3.383;-8.577;0.061;-3.277;-9.218;0.68;-0.09;0.656;-0.613;-0.272;0.448;0.259;1.6;2.9;29.9;49.98;4990;2018-04-16 23:29:22:779
-3.261;-8.66;0.092;-3.305;-9.212;0.63;0.044;0.552;-0.538;-0.407;0.486;0.296;1.6;2.9;29.9;49.98;4999;2018-04-16 23:29:22:788
-3.103;-8.872;0.117;-3.341;-9.203;0.555;0.238;0.332;-0.438;-0.545;0.501;0.332;1.4;3.0;29.7;49.98;5010;2018-04-16 23:29:22:799
-3.103;-8.872;0.117;-3.341;-9.203;0.555;0.238;0.332;-0.438;-0.545;0.501;0.332;1.4;2.9;29.7;49.98;5019;2018-04-16 23:29:22:808
-2.628;-9.758;0.104;-3.41;-9.187;0.386;0.782;-0.571;-0.282;-0.806;0.385;0.392;1.4;2.9;29.7;49.98;5030;2018-04-16 23:29:22:819
-2.115;-10.362;0.172;-3.41;-9.187;0.386;0.782;-0.571;-0.282;-0.845;0.236;0.407;1.3;3.0;29.8;49.98;5039;2018-04-16 23:29:22:828
-2.115;-10.362;0.172;-3.484;-9.164;0.225;1.549;-1.41;-0.046;-0.822;0.039;0.42;1.3;3.0;29.8;49.98;5049;2018-04-16 23:29:22:838
-1.465;-10.714;0.193;-3.484;-9.164;0.225;1.549;-1.41;-0.046;-0.7;-0.329;0.389;1.2;2.9;29.7;49.98;5060;2018-04-16 23:29:22:849
-1.02;-10.585;0.229;-3.551;-9.14;0.122;2.452;-1.479;0.117;-0.58;-0.594;0.307;1.2;2.9;29.7;49.98;5069;2018-04-16 23:29:22:858
-1.02;-10.585;0.229;-3.551;-9.14;0.122;2.452;-1.479;0.117;-0.445;-0.852;0.225;1.2;2.8;29.7;49.98;5080;2018-04-16 23:29:22:869
-0.972;-10.339;0.435;-3.583;-9.128;0.104;2.611;-1.211;0.331;-0.288;-1.07;0.149;1.2;2.8;29.7;49.98;5089;2018-04-16 23:29:22:878
-0.875;-9.839;0.802;-3.583;-9.128;0.104;2.611;-1.211;0.331;-0.288;-1.07;0.149;1.1;2.6;29.7;49.98;5099;2018-04-16 23:29:22:888
-0.875;-9.839;0.802;-3.564;-9.135;0.175;2.65;-0.594;0.713;-0.032;-1.251;-0.02;1.1;2.6;29.7;49.98;5109;2018-04-16 23:29:22:898
-1.147;-9.497;1.003;-3.564;-9.135;0.175;2.65;-0.594;0.713;0.187;-1.236;-0.206;1.1;2.4;29.6;49.98;5120;2018-04-16 23:29:22:909
-1.439;-9.329;1.112;-3.5;-9.156;0.304;2.061;-0.173;0.808;0.283;-1.117;-0.287;1.1;2.4;29.6;49.98;5130;2018-04-16 23:29:22:919
-1.676;-8.939;1.263;-3.5;-9.156;0.304;2.061;-0.173;0.808;0.283;-1.117;-0.287;1.1;2.2;29.6;49.98;5140;2018-04-16 23:29:22:929
-1.676;-8.939;1.263;-3.421;-9.181;0.431;1.667;0.286;0.855;0.353;-0.787;-0.376;1.1;2.2;29.6;49.98;5151;2018-04-16 23:29:22:940
-1.948;-8.77;1.243;-3.382;-9.192;0.479;1.435;0.422;0.763;0.37;-0.512;-0.404;1.2;2.1;29.6;49.98;5160;2018-04-16 23:29:22:949
-2.01;-8.614;1.003;-3.382;-9.192;0.479;1.435;0.422;0.763;0.38;-0.236;-0.404;1.2;2.1;29.6;49.98;5170;2018-04-16 23:29:22:959
-2.01;-8.614;1.003;-3.304;-9.216;0.564;1.219;0.524;0.315;0.476;0.043;-0.397;1.3;2.0;29.6;49.98;5179;2018-04-16 23:29:22:968
-2.21;-8.911;0.597;-3.304;-9.216;0.564;1.219;0.524;0.315;0.591;0.104;-0.38;1.3;2.0;29.6;49.98;5190;2018-04-16 23:29:22:979
-2.31;-9.273;0.421;-3.229;-9.236;0.663;0.942;0.084;-0.234;0.659;0.131;-0.358;1.4;1.9;29.5;49.98;5199;2018-04-16 23:29:22:988
-2.31;-9.273;0.421;-3.229;-9.236;0.663;0.942;0.084;-0.234;0.646;0.191;-0.327;1.4;1.9;29.5;51.56;5210;2018-04-16 23:29:22:999
-2.343;-9.366;0.334;-3.163;-9.251;0.766;0.82;-0.115;-0.432;0.578;0.263;-0.298;1.5;1.9;29.3;51.56;5219;2018-04-16 23:29:23:008
-2.399;-9.153;0.04;-3.163;-9.251;0.766;0.82;-0.115;-0.432;0.512;0.282;-0.269;1.5;1.9;29.3;51.56;5230;2018-04-16 23:29:23:019
-2.399;-9.153;0.04;-3.112;-9.262;0.838;0.645;0.136;-0.859;0.485;0.194;-0.255;1.6;1.9;29.3;51.56;5240;2018-04-16 23:29:23:029
-2.749;-9.165;0.069;-3.112;-9.262;0.838;0.645;0.136;-0.859;0.485;0.194;-0.255;1.6;1.9;29.3;51.56;5250;2018-04-16 23:29:23:039
-2.749;-9.165;0.069;-3.068;-9.268;0.924;0.154;0.017;-0.713;0.549;-0.035;-0.215;1.6;1.9;29.3;51.56;5259;2018-04-16 23:29:23:048
-2.941;-9.309;0.267;-3.068;-9.268;0.924;0.154;0.017;-0.713;0.589;-0.142;-0.186;1.6;1.8;29.2;51.56;5269;2018-04-16 23:29:23:058
-3.041;-9.313;0.364;-3.031;-9.269;1.035;-0.01;-0.045;-0.671;0.573;-0.184;-0.176;1.7;1.9;29.1;51.56;5280;2018-04-16 23:29:23:069
-3.183;-9.193;0.587;-3.031;-9.269;1.035;-0.01;-0.045;-0.671;0.512;-0.165;-0.169;1.7;1.9;29.1;51.56;5290;2018-04-16 23:29:23:079
-3.183;-9.193;0.587;-3.0;-9.268;1.127;-0.231;0.098;-0.485;0.45;-0.114;-0.155;1.8;1.9;29.2;51.56;5300;2018-04-16 23:29:23:089
-3.299;-9.143;0.745;-2.987;-9.267;1.17;-0.312;0.124;-0.425;0.428;-0.042;-0.14;1.8;1.9;29.2;51.56;5310;2018-04-16 23:29:23:099
-3.299;-9.143;0.745;-2.987;-9.267;1.17;-0.312;0.124;-0.425;0.428;-0.042;-0.14;1.8;1.9;29.2;51.56;5320;2018-04-16 23:29:23:109
-3.359;-9.228;0.894;-2.967;-9.262;1.254;-0.392;0.034;-0.36;0.473;0.02;-0.126;2.0;2.0;29.1;51.56;5330;2018-04-16 23:29:23:119
-3.359;-9.228;0.894;-2.967;-9.262;1.254;-0.392;0.034;-0.36;0.523;0.104;-0.12;2.0;2.0;29.1;51.56;5340;2018-04-16 23:29:23:129
-3.309;-9.398;1.008;-2.952;-9.255;1.342;-0.357;-0.143;-0.334;0.556;0.166;-0.116;2.1;2.1;29.0;51.56;5350;2018-04-16 23:29:23:139
-3.292;-9.425;1.118;-2.952;-9.255;1.342;-0.357;-0.143;-0.334;0.593;0.242;-0.104;2.3;2.3;29.0;51.56;5360;2018-04-16 23:29:23:149
-3.292;-9.425;1.118;-2.952;-9.255;1.342;-0.357;-0.143;-0.334;0.593;0.242;-0.104;2.3;2.3;29.0;51.56;5370;2018-04-16 23:29:23:159
-3.236;-9.406;1.152;-2.945;-9.243;1.436;-0.291;-0.162;-0.285;0.627;0.326;-0.082;2.3;2.5;28.9;51.56;5379;2018-04-16 23:29:23:168
-2.811;-9.406;0.474;-2.945;-9.243;1.436;-0.291;-0.162;-0.285;0.693;0.436;-0.026;2.4;2.8;28.9;51.56;5389;2018-04-16 23:29:23:178
-2.811;-9.406;0.474;-2.954;-9.218;1.571;0.238;-0.202;-1.283;0.701;0.357;0.002;2.4;2.8;28.9;51.56;5400;2018-04-16 23:29:23:189
-2.573;-9.499;-0.035;-2.954;-9.218;1.571;0.238;-0.202;-1.283;0.701;0.357;0.002;2.4;3.2;28.9;51.56;5409;2018-04-16 23:29:23:198
-2.512;-9.774;-0.332;-2.959;-9.199;1.672;0.436;-0.465;-1.926;0.7;0.109;0.016;2.4;3.2;28.9;51.56;5420;2018-04-16 23:29:23:209
-2.512;-9.774;-0.332;-2.959;-9.199;1.672;0.436;-0.465;-1.926;0.712;-0.103;0.027;2.4;3.5;28.8;51.56;5430;2018-04-16 23:29:23:219
-2.403;-9.936;-0.364;-2.956;-9.175;1.804;0.553;-0.761;-2.168;0.742;-0.305;0.046;2.4;3.5;28.8;51.56;5440;2018-04-16 23:29:23:229
-2.142;-9.961;-0.437;-2.956;-9.175;1.804;0.553;-0.761;-2.168;0.768;-0.468;0.07;2.4;3.9;28.8;51.56;5450;2018-04-16 23:29:23:239
-2.142;-9.961;-0.437;-2.946;-9.145;1.963;0.903;-0.859;-2.357;0.777;-0.584;0.104;2.4;3.9;28.8;51.56;5460;2018-04-16 23:29:23:249
-1.979;-10.275;-0.213;-2.946;-9.145;1.963;0.903;-0.859;-2.357;0.777;-0.584;0.104;2.4;3.9;28.8;51.56;5470;2018-04-16 23:29:23:259
-1.924;-10.703;-0.092;-2.947;-9.11;2.121;1.023;-1.594;-2.214;0.726;-0.519;0.126;2.4;4.3;28.9;51.56;5480;2018-04-16 23:29:23:269
-1.59;-11.223;-0.134;-2.947;-9.11;2.121;1.203;-1.97;-2.254;0.563;-0.161;0.154;2.4;4.7;28.8;51.56;5490;2018-04-16 23:29:23:279
-1.59;-11.223;-0.134;-2.974;-9.08;2.209;1.203;-1.97;-2.254;0.563;-0.161;0.154;2.4;4.7;28.8;51.56;5499;2018-04-16 23:29:23:288
-1.335;-11.474;-0.43;-2.974;-9.08;2.209;1.662;-2.402;-2.641;0.202;0.557;0.098;2.3;5.1;28.9;51.56;5510;2018-04-16 23:29:23:299
-1.198;-11.548;-0.913;-3.017;-9.071;2.187;1.662;-2.402;-2.641;-0.116;0.915;0.038;2.3;5.1;28.9;51.56;5520;2018-04-16 23:29:23:309
-1.198;-11.548;-0.913;-3.017;-9.071;2.187;1.917;-2.363;-3.146;-0.305;0.916;0.016;2.2;5.5;28.8;51.56;5530;2018-04-16 23:29:23:319
-0.906;-11.107;-1.069;-3.059;-9.082;2.079;1.917;-2.363;-3.146;-0.305;0.916;0.016;2.2;5.5;28.8;51.56;5540;2018-04-16 23:29:23:329
-0.715;-10.81;-0.852;-3.071;-9.095;2.006;2.356;-1.715;-2.858;-0.536;0.61;-0.015;2.2;5.5;28.8;51.33;5550;2018-04-16 23:29:23:339
-0.715;-10.81;-0.852;-3.071;-9.095;2.006;2.356;-1.715;-2.858;-0.77;0.066;-0.121;2.2;5.8;28.9;51.33;5560;2018-04-16 23:29:23:349
-1.525;-10.434;0.384;-3.057;-9.13;1.86;1.532;-1.304;-1.476;-0.77;0.066;-0.121;2.2;5.8;28.9;51.33;5570;2018-04-16 23:29:23:359
-1.525;-10.434;0.384;-3.057;-9.13;1.86;1.532;-1.304;-1.476;-0.77;0.066;-0.121;2.2;5.8;28.9;51.33;5580;2018-04-16 23:29:23:369
-2.046;-10.381;0.698;-3.042;-9.148;1.797;0.59;-1.217;-0.936;-0.799;-0.127;-0.161;2.1;6.1;28.7;51.33;5590;2018-04-16 23:29:23:379
-3.513;-10.1;0.861;-3.042;-9.148;1.797;0.59;-1.217;-0.936;-0.727;-0.4;-0.13;2.0;6.5;28.8;51.33;5599;2018-04-16 23:29:23:388
-3.904;-9.663;0.705;-2.985;-9.199;1.622;-0.826;-0.628;-0.87;-0.731;-0.43;-0.106;2.0;6.5;28.8;51.33;5610;2018-04-16 23:29:23:399
-3.904;-9.663;0.705;-2.985;-9.199;1.622;-0.826;-0.628;-0.87;-0.827;-0.358;-0.059;1.9;6.7;28.8;51.33;5620;2018-04-16 23:29:23:409
-3.976;-9.287;0.666;-2.97;-9.228;1.483;-1.006;-0.059;-0.817;-0.96;-0.219;-0.006;1.9;6.7;28.8;51.33;5629;2018-04-16 23:29:23:418
-3.964;-9.152;0.517;-2.97;-9.228;1.483;-1.006;-0.059;-0.817;-0.96;-0.219;-0.006;1.8;6.8;28.7;51.33;5639;2018-04-16 23:29:23:428
-3.964;-9.152;0.517;-2.986;-9.255;1.267;-0.99;0.116;-0.817;-1.228;0.051;0.075;1.8;6.8;28.7;51.33;5649;2018-04-16 23:29:23:438
-4.079;-9.055;0.454;-2.986;-9.255;1.267;-0.99;0.116;-0.817;-1.476;0.313;0.111;1.8;6.9;28.6;51.33;5659;2018-04-16 23:29:23:448
-4.588;-9.078;0.399;-3.024;-9.278;0.969;-1.315;0.259;-0.471;-1.593;0.481;0.13;1.8;6.9;28.6;51.33;5669;2018-04-16 23:29:23:458
-4.588;-9.078;0.399;-3.024;-9.278;0.969;-1.315;0.259;-0.471;-1.666;0.619;0.147;1.7;6.9;28.6;51.33;5679;2018-04-16 23:29:23:468
-5.097;-9.315;0.429;-3.066;-9.294;0.622;-2.031;-0.02;-0.193;-1.666;0.619;0.147;1.7;6.9;28.5;51.33;5689;2018-04-16 23:29:23:478
-5.205;-9.374;0.98;-3.086;-9.297;0.462;-2.119;-0.078;0.519;-1.671;0.716;0.172;1.7;6.9;28.5;51.33;5700;2018-04-16 23:29:23:489
-5.205;-9.374;0.98;-3.086;-9.297;0.462;-2.119;-0.078;0.519;-1.609;0.842;0.205;1.6;6.8;28.7;51.33;5710;2018-04-16 23:29:23:499
-4.968;-9.346;1.836;-3.132;-9.292;0.117;-1.716;-0.067;1.854;-1.464;1.098;0.219;1.6;6.8;28.7;51.33;5719;2018-04-16 23:29:23:508
-4.541;-9.475;2.421;-3.132;-9.292;0.117;-1.716;-0.067;1.854;-1.392;1.266;0.214;1.5;6.6;28.7;51.33;5730;2018-04-16 23:29:23:519
-4.378;-9.84;3.807;-3.17;-9.278;-0.224;-1.172;-0.397;3.579;-1.335;1.651;0.203;1.5;6.6;28.7;51.33;5740;2018-04-16 23:29:23:529
-4.378;-9.84;3.807;-3.17;-9.278;-0.224;-1.172;-0.397;3.579;-1.271;1.993;0.213;1.3;6.3;28.6;51.33;5749;2018-04-16 23:29:23:538
-3.995;-10.268;3.274;-3.193;-9.254;-0.583;-0.802;-1.013;3.857;-1.191;2.176;0.194;1.3;6.3;28.6;51.33;5760;2018-04-16 23:29:23:549
-4.009;-10.467;2.552;-3.193;-9.254;-0.583;-0.802;-1.013;3.857;-1.135;2.089;0.154;1.0;5.9;28.6;51.33;5769;2018-04-16 23:29:23:558
-4.009;-10.467;2.552;-3.191;-9.227;-0.924;-0.792;-1.132;3.43;-1.052;1.845;0.148;1.0;5.9;28.6;51.33;5779;2018-04-16 23:29:23:568
-3.61;-9.868;1.832;-3.191;-9.227;-0.924;-0.792;-1.132;3.43;-0.952;1.502;0.136;0.7;5.5;28.7;51.33;5790;2018-04-16 23:29:23:579
-2.971;-9.404;0.435;-3.184;-9.199;-1.187;0.135;-0.294;2.307;-0.952;1.502;0.136;0.7;5.5;28.7;51.33;5799;2018-04-16 23:29:23:588
-2.971;-9.404;0.435;-3.184;-9.199;-1.187;0.135;-0.294;2.307;-0.834;0.705;0.104;-0.1;4.6;28.6;51.33;5809;2018-04-16 23:29:23:598
-2.333;-9.758;-1.87;-3.197;-9.173;-1.344;0.864;-0.585;-0.526;-0.318;-1.147;0.225;-0.1;4.6;28.6;51.33;5820;2018-04-16 23:29:23:609
-1.891;-9.372;-1.681;-3.197;-9.173;-1.344;0.864;-0.585;-0.526;-0.054;-1.685;0.18;-0.8;3.6;28.9;51.33;5830;2018-04-16 23:29:23:619
-1.891;-9.372;-1.681;-3.259;-9.158;-1.294;1.261;-0.226;-0.284;0.039;-1.611;0.092;-0.8;3.6;28.9;51.33;5840;2018-04-16 23:29:23:629
-2.354;-9.298;-0.818;-3.259;-9.158;-1.294;1.261;-0.226;-0.284;-0.029;-0.899;0.012;-1.1;2.9;29.2;51.33;5850;2018-04-16 23:29:23:639
-2.756;-9.131;0.747;-3.285;-9.159;-1.218;0.529;0.028;1.965;-0.029;-0.899;0.012;-1.1;2.9;29.2;51.33;5860;2018-04-16 23:29:23:649
-2.756;-9.131;1.336;-3.285;-9.159;-1.218;0.529;0.028;1.965;-0.136;0.264;-0.086;-1.2;2.8;28.9;51.71;5869;2018-04-16 23:29:23:658
-2.909;-8.814;1.336;-3.258;-9.164;-1.258;0.349;0.35;2.594;-0.238;2.232;-0.362;-1.4;2.3;29.2;51.71;5880;2018-04-16 23:29:23:669
-3.783;-8.357;0.411;-3.137;-9.181;-1.43;-0.646;0.824;1.84;-0.238;2.232;-0.362;-1.4;2.3;29.2;51.71;5890;2018-04-16 23:29:23:679
-4.269;-8.162;-0.535;-3.137;-9.181;-1.43;-0.646;0.824;1.84;-0.166;2.478;-0.406;-1.9;2.3;29.5;51.71;5899;2018-04-16 23:29:23:688
-4.269;-8.162;-0.535;-3.003;-9.199;-1.592;-1.349;1.082;0.814;-0.106;2.215;-0.375;-1.9;2.3;29.5;51.71;5910;2018-04-16 23:29:23:699
-4.61;-7.999;-1.544;-3.003;-9.199;-1.592;-1.349;1.082;0.814;-0.117;1.438;-0.259;-2.3;1.9;28.9;51.71;5920;2018-04-16 23:29:23:709
-4.553;-7.73;-1.963;-2.922;-9.205;-1.7;-1.635;1.422;-0.228;-0.202;0.833;-0.145;-2.3;1.9;28.9;51.71;5930;2018-04-16 23:29:23:719
-4.553;-7.73;-1.963;-2.922;-9.205;-1.7;-1.635;1.422;-0.228;-0.315;0.302;-0.048;-2.9;1.4;29.1;51.71;5940;2018-04-16 23:29:23:729
-4.416;-7.643;-1.654;-2.912;-9.194;-1.777;-1.505;1.551;0.123;-0.315;0.302;-0.048;-2.9;1.4;29.1;51.71;5949;2018-04-16 23:29:23:738
-4.416;-7.643;-1.654;-2.912;-9.194;-1.777;-1.505;1.551;0.123;-0.439;-0.059;0.035;-2.9;1.4;29.1;51.71;5960;2018-04-16 23:29:23:749
-4.416;-7.643;-1.654;-2.912;-9.194;-1.777;-1.505;1.551;0.123;-0.439;-0.059;0.035;-2.9;1.4;29.1;51.71;5969;2018-04-16 23:29:23:758
-3.937;-8.001;-0.947;-2.942;-9.168;-1.861;-0.995;1.166;0.914;-0.573;-0.283;0.123;-3.0;1.2;29.2;51.71;5980;2018-04-16 23:29:23:769
-2.922;-7.906;-0.464;-2.985;-9.134;-1.957;0.063;1.229;1.492;-0.599;-0.198;0.189;-3.5;0.8;29.2;51.71;5990;2018-04-16 23:29:23:779
-2.38;-8.121;-0.646;-2.985;-9.134;-1.957;0.063;1.229;1.492;-0.516;-0.086;0.14;-3.5;0.8;29.2;51.71;5999;2018-04-16 23:29:23:788
-2.38;-8.121;-0.646;-3.014;-9.105;-2.045;0.775;0.93;1.219;-0.475;-0.044;0.109;-4.0;0.5;29.0;51.71;6009;2018-04-16 23:29:23:798
-2.304;-8.122;-0.903;-3.014;-9.105;-2.045;0.775;0.93;1.219;-0.457;0.011;0.108;-4.0;0.5;29.0;51.71;6020;2018-04-16 23:29:23:809
-2.189;-7.964;-0.942;-3.034;-9.079;-2.129;0.844;1.115;1.187;-0.457;0.011;0.108;-4.4;0.1;28.9;51.71;6030;2018-04-16 23:29:23:819
-2.189;-7.964;-0.942;-3.034;-9.079;-2.129;0.844;1.115;1.187;-0.413;0.062;0.125;-4.4;0.1;28.9;51.71;6039;2018-04-16 23:29:23:828
-2.066;-7.627;-1.004;-3.05;-9.057;-2.2;0.984;1.43;1.196;-0.33;0.078;0.099;-4.8;0.0;29.0;51.71;6049;2018-04-16 23:29:23:838
-1.951;-6.991;-0.971;-3.05;-9.057;-2.2;0.984;1.43;1.196;-0.189;0.037;0.103;-4.8;0.0;29.0;51.71;6059;2018-04-16 23:29:23:848
-1.951;-6.991;-0.971;-3.066;-9.043;-2.236;1.158;2.107;1.301;-0.089;-0.012;0.076;-5.1;-0.3;28.9;51.71;6070;2018-04-16 23:29:23:859
-1.931;-6.958;-0.991;-3.066;-9.043;-2.236;1.158;2.107;1.301;0.031;-0.147;0.046;-5.1;-0.3;28.9;51.71;6080;2018-04-16 23:29:23:869
-1.931;-6.958;-0.991;-3.082;-9.041;-2.22;1.114;2.055;1.273;0.031;-0.147;0.046;-5.1;-0.3;28.9;51.71;6089;2018-04-16 23:29:23:878
-1.966;-6.967;-0.88;-3.082;-9.041;-2.22;1.114;2.055;1.273;0.132;-0.309;0.034;-5.3;-0.5;28.9;51.71;6100;2018-04-16 23:29:23:889
-1.972;-7.138;-0.986;-3.104;-9.049;-2.158;1.133;1.91;1.172;0.243;-0.391;0.031;-5.5;-0.6;28.9;51.71;6110;2018-04-16 23:29:23:899
-1.991;-7.708;-1.317;-3.104;-9.049;-2.158;1.133;1.91;1.172;0.293;-0.395;0.031;-5.5;-0.6;28.9;51.71;6120;2018-04-16 23:29:23:909
-1.991;-7.708;-1.317;-3.126;-9.059;-2.081;1.113;1.14;0.656;0.293;-0.395;0.031;-5.5;-0.6;28.9;51.71;6130;2018-04-16 23:29:23:919
-2.006;-8.146;-1.581;-3.126;-9.059;-2.081;1.113;1.14;0.656;0.285;-0.461;0.029;-5.6;-0.7;28.7;51.71;6140;2018-04-16 23:29:23:929
-2.02;-8.589;-1.903;-3.151;-9.068;-2.003;1.123;0.258;-0.081;0.254;-0.555;0.028;-5.7;-0.7;28.7;51.71;6149;2018-04-16 23:29:23:938
-2.02;-8.589;-1.903;-3.151;-9.068;-2.003;1.123;0.258;-0.081;0.254;-0.555;0.028;-5.9;-0.8;28.5;51.71;6159;2018-04-16 23:29:23:948
-2.07;-9.59;-2.789;-3.179;-9.072;-1.941;1.091;-0.654;-1.079;0.097;-0.79;0.024;-5.9;-0.8;28.5;51.71;6169;2018-04-16 23:29:23:958
-2.118;-9.99;-3.77;-3.179;-9.072;-1.941;1.091;-0.654;-1.079;-0.12;-1.01;0.023;-5.9;-0.8;28.5;51.71;6180;2018-04-16 23:29:23:969
-2.093;-10.448;-5.233;-3.225;-9.062;-1.911;1.076;-1.238;-2.752;-0.31;-1.201;0.015;-6.0;-0.9;28.4;52.93;6190;2018-04-16 23:29:23:979
-2.093;-10.448;-5.233;-3.225;-9.062;-1.911;1.076;-1.238;-2.752;-0.606;-1.523;-0.013;-6.1;-1.0;28.3;52.93;6200;2018-04-16 23:29:23:989
-2.023;-10.733;-6.588;-3.28;-9.04;-1.923;1.257;-1.694;-4.665;-0.762;-1.697;-0.048;-6.1;-1.0;28.3;52.93;6209;2018-04-16 23:29:23:998
-2.028;-10.866;-7.039;-3.28;-9.04;-1.923;1.257;-1.694;-4.665;-0.843;-1.756;-0.09;-6.0;-1.1;28.2;52.93;6220;2018-04-16 23:29:24:009
-2.028;-10.866;-7.039;-3.28;-9.04;-1.923;1.257;-1.694;-4.665;-0.843;-1.756;-0.09;-6.0;-1.1;28.2;52.93;6229;2018-04-16 23:29:24:018
-2.312;-10.514;-5.719;-3.33;-9.014;-1.959;1.247;-1.8;-4.838;-0.838;-1.707;-0.12;-5.8;-1.1;28.2;52.93;6240;2018-04-16 23:29:24:029
-3.018;-9.762;-3.96;-3.328;-9.009;-1.983;0.569;-1.042;-2.42;-0.408;-0.893;-0.293;-5.8;-1.1;28.2;52.93;6250;2018-04-16 23:29:24:039
-3.018;-9.762;-3.96;-3.328;-9.009;-1.983;0.569;-1.042;-2.42;0.219;-0.006;-0.411;-5.5;-1.2;28.2;52.93;6260;2018-04-16 23:29:24:049
-3.423;-9.019;-3.56;-3.254;-9.044;-1.947;-0.169;0.025;-1.613;0.531;0.42;-0.505;-5.5;-1.2;28.2;52.93;6269;2018-04-16 23:29:24:058
-3.423;-9.019;-3.56;-3.254;-9.044;-1.947;-0.169;0.025;-1.613;0.531;0.42;-0.505;-5.5;-1.2;28.2;52.93;6280;2018-04-16 23:29:24:069
-4.29;-8.807;-2.919;-3.13;-9.105;-1.865;-1.388;0.354;-0.989;0.726;0.696;-0.572;-5.3;-1.3;28.1;52.93;6290;2018-04-16 23:29:24:079
-4.895;-8.557;-3.136;-3.13;-9.105;-1.865;-1.388;0.354;-0.989;0.836;0.856;-0.579;-5.3;-1.3;28.1;52.93;6299;2018-04-16 23:29:24:088
-5.267;-8.394;-2.854;-3.015;-9.163;-1.769;-2.253;0.769;-1.085;0.759;0.618;-0.502;-5.0;-1.3;28.1;52.93;6309;2018-04-16 23:29:24:098
-5.267;-8.394;-2.854;-3.015;-9.163;-1.769;-2.253;0.769;-1.085;0.759;0.618;-0.502;-5.0;-1.3;28.1;52.93;6320;2018-04-16 23:29:24:109
-5.428;-7.769;-1.614;-2.992;-9.189;-1.668;-2.458;1.427;0.372;0.53;-0.015;-0.272;-4.8;-1.3;28.2;52.93;6331;2018-04-16 23:29:24:120
-5.423;-8.297;-0.888;-2.992;-9.189;-1.668;-2.458;1.427;0.372;0.329;-0.483;-0.068;-4.6;-1.2;28.3;52.93;6340;2018-04-16 23:29:24:129
-5.398;-9.488;-1.663;-3.014;-9.197;-1.582;-2.384;-0.291;-0.081;0.253;-0.555;0.001;-4.6;-1.2;28.3;52.93;6350;2018-04-16 23:29:24:139
-5.398;-9.488;-1.663;-3.014;-9.197;-1.582;-2.384;-0.291;-0.081;0.253;-0.555;0.001;-4.6;-1.2;28.3;52.93;6359;2018-04-16 23:29:24:148
-4.492;-11.346;-4.101;-3.057;-9.194;-1.516;-1.434;-2.152;-2.586;0.155;-0.643;0.122;-4.4;-1.0;28.3;52.93;6370;2018-04-16 23:29:24:159
-2.321;-12.374;-6.214;-3.057;-9.194;-1.516;-1.434;-2.152;-2.586;-0.035;-0.826;0.165;-4.1;-0.9;28.3;52.93;6380;2018-04-16 23:29:24:169
-0.412;-12.678;-7.002;-3.104;-9.183;-1.485;2.692;-3.495;-5.517;-0.2;-0.927;0.068;-4.1;-0.9;28.3;52.93;6390;2018-04-16 23:29:24:179
-0.412;-12.678;-7.002;-3.104;-9.183;-1.485;2.692;-3.495;-5.517;-0.2;-0.927;0.068;-4.0;-0.8;28.3;52.93;6400;2018-04-16 23:29:24:189
1.014;-11.196;0.357;-3.072;-9.188;-1.524;4.086;-2.009;1.881;-0.33;0.144;-0.195;-3.7;-0.7;28.2;52.93;6410;2018-04-16 23:29:24:199
-0.909;-6.2;3.691;-3.072;-9.188;-1.524;4.086;-2.009;1.881;0.312;1.348;-0.596;-3.7;-0.7;28.2;52.93;6420;2018-04-16 23:29:24:209
-0.909;-6.2;3.691;-2.922;-9.233;-1.542;0.918;3.313;5.685;0.54;1.108;-0.803;-3.5;-0.7;28.3;52.93;6430;2018-04-16 23:29:24:219
-3.968;-6.214;3.955;-2.922;-9.233;-1.542;0.918;3.313;5.685;0.54;1.108;-0.803;-3.5;-0.7;28.3;52.93;6440;2018-04-16 23:29:24:229
-5.294;-6.742;1.948;-2.764;-9.296;-1.451;-2.204;2.776;4.132;0.728;0.755;-0.76;-3.3;-0.7;28.3;52.93;6449;2018-04-16 23:29:24:238
-5.294;-6.742;1.948;-2.764;-9.296;-1.451;-2.204;2.776;4.132;0.755;0.376;-0.385;-3.1;-0.5;28.4;52.93;6460;2018-04-16 23:29:24:249
-5.624;-7.402;1.642;-2.727;-9.326;-1.327;-2.897;1.924;2.969;0.626;0.319;-0.127;-3.1;-0.5;28.4;52.93;6471;2018-04-16 23:29:24:260
-5.784;-8.152;1.64;-2.737;-9.328;-1.288;-3.048;1.176;2.928;0.495;0.527;0.07;-3.0;-0.3;28.5;52.93;6482;2018-04-16 23:29:24:271
-5.784;-8.152;1.64;-2.737;-9.328;-1.288;-3.048;1.176;2.928;0.495;0.527;0.07;-3.0;-0.3;28.5;52.93;6490;2018-04-16 23:29:24:279
-5.266;-9.16;-1.199;-2.774;-9.319;-1.274;-2.492;0.159;0.074;0.254;0.957;0.367;-3.0;-0.3;28.5;52.93;6500;2018-04-16 23:29:24:289
-4.335;-9.776;-4.044;-2.774;-9.319;-1.274;-2.492;0.159;0.074;0.142;0.643;0.475;-3.0;-0.2;28.6;51.93;6510;2018-04-16 23:29:24:299
-4.335;-9.776;-4.044;-2.865;-9.294;-1.258;-1.279;-0.48;-2.196;0.247;-0.662;0.619;-2.9;0.0;28.7;51.93;6519;2018-04-16 23:29:24:308
-3.962;-9.555;-0.68;-2.865;-9.294;-1.258;-1.017;-0.278;0.515;0.325;-1.016;0.611;-2.9;0.0;28.7;51.93;6530;2018-04-16 23:29:24:319
-4.331;-9.36;1.689;-3.003;-9.266;-1.138;-1.017;-0.278;0.515;0.346;-0.781;0.511;-3.0;0.0;28.6;51.93;6539;2018-04-16 23:29:24:328
-4.331;-9.36;1.689;-3.061;-9.254;-1.079;-1.32;-0.124;2.421;0.354;-0.445;0.486;-3.0;0.0;28.6;51.93;6549;2018-04-16 23:29:24:338
-4.265;-9.448;0.202;-3.061;-9.254;-1.079;-1.32;-0.124;2.421;0.386;-0.395;0.569;-3.1;0.3;28.6;51.93;6560;2018-04-16 23:29:24:349
-3.583;-9.408;-0.371;-3.179;-9.226;-0.976;-0.649;-0.236;0.617;0.413;-0.6;0.644;-3.1;0.3;28.6;51.93;6569;2018-04-16 23:29:24:358
-3.583;-9.408;-0.371;-3.24;-9.21;-0.919;-0.649;-0.236;0.617;0.365;-0.811;0.633;-3.2;0.6;28.6;51.93;6579;2018-04-16 23:29:24:368
-3.414;-9.5;0.145;-3.31;-9.192;-0.852;-0.105;-0.308;0.997;0.268;-0.91;0.584;-3.2;0.6;28.6;51.93;6590;2018-04-16 23:29:24:379
-3.414;-9.5;0.145;-3.31;-9.192;-0.852;-0.105;-0.308;0.997;0.268;-0.91;0.584;-3.2;0.8;28.6;51.93;6599;2018-04-16 23:29:24:388
-3.239;-9.594;0.62;-3.425;-9.159;-0.749;0.185;-0.435;1.369;0.137;-0.93;0.552;-3.2;0.8;28.6;51.93;6609;2018-04-16 23:29:24:398
-3.239;-9.594;0.62;-3.425;-9.159;-0.749;0.185;-0.435;1.369;0.137;-0.93;0.552;-3.2;1.0;28.6;51.93;6620;2018-04-16 23:29:24:409
-2.394;-9.383;0.617;-3.532;-9.126;-0.639;1.352;-0.245;1.252;0.131;-1.024;0.58;-3.1;1.2;28.5;51.93;6630;2018-04-16 23:29:24:419
-2.138;-9.656;0.7;-3.569;-9.116;-0.575;1.431;-0.54;1.275;0.244;-1.203;0.454;-3.1;1.2;28.5;51.93;6639;2018-04-16 23:29:24:428
-2.138;-9.656;0.7;-3.569;-9.116;-0.575;1.431;-0.54;1.275;0.334;-1.244;0.353;-3.1;1.3;28.6;51.93;6650;2018-04-16 23:29:24:439
-1.86;-10.093;1.103;-3.631;-9.1;-0.41;1.998;-1.007;1.639;0.635;-1.003;0.204;-2.9;1.5;28.5;51.93;6659;2018-04-16 23:29:24:448
-1.116;-10.229;1.458;-3.631;-9.1;-0.41;1.998;-1.007;1.639;0.853;-0.737;0.055;-2.9;1.5;28.5;51.93;6670;2018-04-16 23:29:24:459
-1.116;-10.567;1.778;-3.656;-9.097;-0.21;2.64;-1.398;1.943;1.041;-0.335;-0.116;-2.9;1.6;28.5;51.93;6680;2018-04-16 23:29:24:469
-1.341;-10.567;1.778;-3.656;-9.097;-0.21;2.64;-1.398;1.943;1.169;0.205;-0.215;-2.9;1.6;28.5;51.93;6690;2018-04-16 23:29:24:479
-1.536;-10.284;1.299;-3.614;-9.116;-0.011;2.078;-1.168;1.31;1.169;0.205;-0.215;-2.7;1.9;28.4;51.93;6699;2018-04-16 23:29:24:488
-1.536;-10.284;1.299;-3.614;-9.116;-0.011;2.078;-1.168;1.31;1.219;0.75;-0.299;-2.7;1.9;28.4;51.93;6710;2018-04-16 23:29:24:499
-1.889;-9.834;0.135;-3.527;-9.15;0.126;1.453;-0.701;-0.059;1.119;1.19;-0.447;-2.7;2.3;28.4;51.93;6719;2018-04-16 23:29:24:508
-2.354;-9.847;-0.248;-3.481;-9.166;0.172;1.128;-0.681;-0.42;0.97;1.313;-0.429;-2.7;2.3;28.4;51.93;6730;2018-04-16 23:29:24:519
-2.11;-9.006;-0.25;-3.481;-9.166;0.172;1.128;-0.681;-0.42;0.626;1.243;-0.346;-2.6;2.6;28.3;51.93;6739;2018-04-16 23:29:24:528
-1.935;-8.596;-0.358;-3.415;-9.191;0.196;1.401;0.38;-0.494;0.395;1.082;-0.32;-2.6;2.8;28.3;51.93;6750;2018-04-16 23:29:24:539
-1.935;-8.596;-0.358;-3.415;-9.191;0.196;1.401;0.38;-0.494;0.395;1.082;-0.32;-2.6;2.8;28.3;51.93;6760;2018-04-16 23:29:24:549
-1.961;-8.614;-0.657;-3.365;-9.21;0.175;1.404;0.595;-0.833;0.086;0.611;-0.254;-2.5;3.2;28.2;51.93;6770;2018-04-16 23:29:24:559
-1.961;-8.614;-0.657;-3.365;-9.21;0.175;1.404;0.595;-0.833;0.086;0.611;-0.254;-2.5;3.2;28.2;51.93;6779;2018-04-16 23:29:24:568
-1.645;-8.368;-0.852;-3.332;-9.222;0.159;1.652;0.84;-0.967;-0.123;-0.061;-0.176;-2.5;3.4;28.2;51.93;6790;2018-04-16 23:29:24:579
-2.048;-8.595;-0.506;-3.332;-9.222;0.159;1.652;0.84;-0.967;-0.155;-0.788;-0.16;-2.4;3.7;28.2;51.93;6799;2018-04-16 23:29:24:588
-2.411;-8.988;0.148;-3.299;-9.233;0.203;0.993;0.358;-0.276;-0.083;-1.178;-0.128;-2.4;3.7;28.2;51.93;6811;2018-04-16 23:29:24:600
-2.411;-8.988;0.148;-3.299;-9.233;0.203;0.993;0.358;-0.276;0.007;-1.411;-0.104;-2.4;3.7;28.1;51.93;6820;2018-04-16 23:29:24:609
-2.52;-9.014;0.497;-3.27;-9.24;0.306;0.71;0.292;0.358;0.065;-1.48;-0.087;-2.3;4.0;28.1;51.93;6830;2018-04-16 23:29:24:619
-2.606;-8.838;0.939;-3.27;-9.24;0.306;0.71;0.292;0.358;0.115;-1.335;-0.078;-2.1;4.3;28.1;51.93;6840;2018-04-16 23:29:24:629
-2.563;-8.707;1.293;-3.242;-9.246;0.416;0.633;0.507;0.762;0.126;-1.112;-0.083;-2.1;4.3;28.1;55.64;6849;2018-04-16 23:29:24:638
-2.563;-8.707;1.293;-3.242;-9.246;0.416;0.633;0.507;0.762;0.14;-0.827;-0.104;-1.9;4.7;28.1;55.64;6860;2018-04-16 23:29:24:649
-2.47;-8.847;1.476;-3.212;-9.252;0.5;0.742;0.406;0.976;0.158;-0.512;-0.132;-1.9;4.7;28.1;55.64;6870;2018-04-16 23:29:24:659
-2.717;-9.25;1.434;-3.212;-9.252;0.5;0.742;0.406;0.976;0.158;-0.512;-0.132;-1.7;4.9;28.0;55.64;6880;2018-04-16 23:29:24:669
-2.717;-9.25;1.434;-3.178;-9.261;0.554;0.416;-0.092;0.819;0.194;-0.048;-0.148;-1.7;4.9;28.0;55.64;6889;2018-04-16 23:29:24:678
-2.795;-9.389;1.308;-3.178;-9.261;0.554;0.416;-0.092;0.819;0.242;0.299;-0.147;-1.6;5.0;28.0;55.64;6899;2018-04-16 23:29:24:688
-2.975;-9.437;1.088;-3.151;-9.268;0.587;0.176;-0.169;0.501;0.314;0.421;-0.144;-1.5;5.3;27.8;55.64;6909;2018-04-16 23:29:24:698
-3.408;-9.638;0.94;-3.151;-9.268;0.587;0.176;-0.169;0.501;0.314;0.421;-0.144;-1.5;5.3;27.8;55.64;6919;2018-04-16 23:29:24:708
-3.408;-9.638;0.94;-3.134;-9.269;0.654;-0.387;-0.457;0.287;0.577;0.385;-0.109;-1.4;5.6;27.6;55.64;6929;2018-04-16 23:29:24:718
-3.797;-9.853;0.917;-3.134;-9.269;0.654;-0.387;-0.457;0.287;1.057;0.182;-0.033;-1.4;5.6;27.6;55.64;6939;2018-04-16 23:29:24:728
-3.766;-9.643;0.617;-3.128;-9.259;0.815;-0.736;-0.538;-0.038;1.136;0.198;0.012;-1.3;5.9;27.6;55.64;6949;2018-04-16 23:29:24:738
-3.766;-9.643;0.617;-3.128;-9.259;0.815;-0.736;-0.538;-0.038;1.136;0.198;0.012;-1.3;5.9;27.6;55.64;6959;2018-04-16 23:29:24:748
-3.502;-9.097;0.397;-3.144;-9.235;0.997;-0.358;0.139;-0.599;1.065;0.325;0.064;-1.3;6.2;27.6;55.64;6969;2018-04-16 23:29:24:758
-3.138;-8.911;0.238;-3.144;-9.235;0.997;-0.358;0.139;-0.599;0.993;0.403;0.115;-1.3;6.2;27.6;55.64;6979;2018-04-16 23:29:24:768
-3.138;-8.911;0.238;-3.175;-9.207;1.148;0.156;0.245;-0.964;0.994;0.379;0.136;-1.4;6.5;27.4;55.64;6989;2018-04-16 23:29:24:778
-2.802;-9.057;0.067;-3.175;-9.207;1.148;0.156;0.245;-0.964;1.029;0.285;0.139;-1.4;6.5;27.4;55.64;6999;2018-04-16 23:29:24:788
-2.465;-9.002;-0.169;-3.204;-9.175;1.312;0.587;0.111;-1.37;1.029;0.285;0.139;-1.5;6.9;27.4;55.64;7009;2018-04-16 23:29:24:798
-2.465;-9.002;-0.169;-3.204;-9.175;1.312;0.587;0.111;-1.37;1.168;0.011;0.133;-1.5;6.9;27.4;55.64;7019;2018-04-16 23:29:24:808
-2.138;-8.835;-0.431;-3.221;-9.135;1.533;1.083;0.3;-1.964;1.273;-0.209;0.12;-1.5;7.2;27.4;55.64;7029;2018-04-16 23:29:24:818
-1.796;-8.744;-0.5;-3.221;-9.135;1.533;1.083;0.3;-1.964;1.317;-0.39;0.098;-1.5;7.2;27.4;55.64;7040;2018-04-16 23:29:24:829
-1.796;-8.744;-0.5;-3.218;-9.089;1.792;1.474;0.254;-2.26;1.279;-0.502;0.072;-1.5;7.6;27.4;55.64;7049;2018-04-16 23:29:24:838
-1.583;-9.074;-0.462;-3.218;-9.089;1.792;1.474;0.254;-2.26;1.102;-0.549;0.067;-1.5;7.6;27.4;55.64;7060;2018-04-16 23:29:24:849
-1.385;-9.669;-0.311;-3.199;-9.051;2.006;1.741;-0.391;-2.392;0.918;-0.511;0.071;-1.4;7.9;27.3;55.64;7069;2018-04-16 23:29:24:858
-1.385;-9.669;-0.311;-3.199;-9.051;2.006;1.741;-0.391;-2.392;0.918;-0.511;0.071;-1.4;7.9;27.3;55.64;7080;2018-04-16 23:29:24:869
-1.323;-10.005;-0.136;-3.179;-9.026;2.143;1.857;-0.979;-2.279;0.628;-0.371;0.057;-1.3;8.3;27.1;55.64;7089;2018-04-16 23:29:24:878
-1.748;-10.502;0.329;-3.179;-9.026;2.143;1.857;-0.979;-2.279;0.474;-0.242;0.016;-1.3;8.3;27.1;55.64;7100;2018-04-16 23:29:24:889
-1.748;-10.502;0.329;-3.166;-9.011;2.225;1.275;-1.645;-1.733;0.374;-0.075;-0.054;-1.3;8.3;27.1;55.64;7109;2018-04-16 23:29:24:898
-1.96;-10.797;0.643;-3.16;-9.008;2.246;1.201;-1.789;-1.603;0.309;0.142;-0.106;-1.2;8.7;27.0;55.64;7120;2018-04-16 23:29:24:909
-1.824;-11.131;0.877;-3.16;-9.008;2.246;1.201;-1.789;-1.603;0.211;0.464;-0.149;-1.2;9.2;26.8;55.64;7130;2018-04-16 23:29:24:919
-1.332;-11.358;0.617;-3.153;-9.008;2.255;1.65;-2.229;-1.526;0.211;0.464;-0.149;-1.2;9.2;26.8;55.64;7139;2018-04-16 23:29:24:928
-1.332;-11.358;0.617;-3.153;-9.008;2.255;1.65;-2.229;-1.526;0.051;0.615;-0.17;-1.2;9.7;26.7;55.64;7150;2018-04-16 23:29:24:939
-0.949;-11.495;0.358;-3.148;-9.019;2.216;2.198;-2.475;-1.858;-0.151;0.486;-0.187;-1.2;9.7;26.7;55.64;7159;2018-04-16 23:29:24:948
-0.65;-11.606;0.284;-3.148;-9.019;2.216;2.198;-2.475;-1.858;-0.274;0.266;-0.193;-1.3;10.1;26.5;53.13;7169;2018-04-16 23:29:24:958
-0.65;-11.606;0.284;-3.125;-9.043;2.15;2.575;-2.554;-1.808;-0.371;-0.009;-0.195;-1.3;10.1;26.5;53.13;7180;2018-04-16 23:29:24:969
-0.393;-11.53;0.567;-3.125;-9.043;2.15;2.575;-2.554;-1.808;-0.429;-0.304;-0.235;-1.4;10.5;26.4;53.13;7189;2018-04-16 23:29:24:978
-0.621;-11.17;1.044;-3.069;-9.076;2.091;2.448;-2.094;-1.047;-0.429;-0.304;-0.235;-1.4;10.5;26.4;53.13;7200;2018-04-16 23:29:24:989
-0.621;-11.17;1.044;-3.069;-9.076;2.091;2.448;-2.094;-1.047;-0.428;-0.654;-0.353;-1.5;10.7;26.3;53.13;7210;2018-04-16 23:29:24:999
-1.289;-10.745;1.556;-3.019;-9.098;2.07;1.73;-1.647;-0.514;-0.391;-0.676;-0.523;-1.5;11.1;26.4;53.13;7220;2018-04-16 23:29:25:009
-3.049;-10.078;1.804;-2.901;-9.143;2.04;-0.148;-0.935;-0.236;-0.442;-0.546;-0.55;-1.5;11.1;26.4;53.13;7229;2018-04-16 23:29:25:018
-3.947;-9.396;1.986;-2.901;-9.143;2.04;-0.148;-0.935;-0.236;-0.553;-0.334;-0.545;-1.6;11.5;26.3;53.13;7239;2018-04-16 23:29:25:028
-3.947;-9.396;1.986;-2.789;-9.195;1.96;-1.356;-0.018;0.086;-0.684;-0.053;-0.538;-1.6;11.5;26.3;53.13;7250;2018-04-16 23:29:25:039
-4.627;-8.984;2.029;-2.789;-9.195;1.96;-1.356;-0.018;0.086;-0.826;0.247;-0.47;-1.6;11.8;26.1;53.13;7259;2018-04-16 23:29:25:048
-5.866;-8.74;-0.269;-2.723;-9.249;1.794;-2.408;0.398;-0.293;-0.947;0.457;-0.359;-1.6;11.8;26.1;53.13;7270;2018-04-16 23:29:25:059
-5.866;-8.74;-0.269;-2.723;-9.249;1.794;-2.408;0.398;-0.293;-0.965;0.06;-0.249;-1.7;12.1;26.1;53.13;7280;2018-04-16 23:29:25:069
-8.074;-9.064;-3.858;-2.68;-9.294;1.615;-5.394;0.23;-5.473;-1.038;-0.761;-0.051;-1.7;12.1;26.1;53.13;7289;2018-04-16 23:29:25:078
-8.477;-9.407;-1.897;-2.68;-9.294;1.615;-5.394;0.23;-5.473;-1.038;-0.761;-0.051;-1.7;12.3;26.0;53.13;7299;2018-04-16 23:29:25:088
-7.201;-9.395;0.29;-2.696;-9.32;1.425;-5.199;-0.025;-2.251;-1.509;-1.213;0.415;-1.8;12.2;26.0;53.13;7310;2018-04-16 23:29:25:099
-7.201;-9.395;0.29;-2.738;-9.33;1.277;-3.833;-0.252;-0.037;-1.967;-0.751;0.605;-1.8;12.2;26.0;53.13;7320;2018-04-16 23:29:25:109
-6.178;-9.774;1.891;-2.738;-9.33;1.277;-3.833;-0.252;-0.037;-2.629;0.414;0.701;-1.8;12.3;25.9;53.13;7329;2018-04-16 23:29:25:118
-5.904;-10.821;4.521;-2.877;-9.343;0.774;-3.031;-1.287;2.859;-2.629;0.414;0.701;-1.7;12.3;25.9;53.13;7340;2018-04-16 23:29:25:129
-5.904;-10.438;5.48;-2.971;-9.335;0.437;-2.784;-1.43;4.584;-2.905;1.319;0.845;-1.7;12.3;25.9;53.13;7350;2018-04-16 23:29:25:139
-5.261;-10.438;5.48;-2.971;-9.335;0.437;-2.784;-1.43;4.584;-2.905;1.319;0.845;-1.7;12.3;25.9;53.13;7360;2018-04-16 23:29:25:149
-4.259;-9.694;4.858;-2.971;-9.335;0.437;-2.784;-1.43;4.584;-2.716;2.085;0.777;-1.8;12.1;26.0;53.13;7369;2018-04-16 23:29:25:158
-4.259;-9.694;4.858;-3.116;-9.296;-0.192;-1.177;-0.262;5.018;-2.042;2.54;0.431;-1.8;12.1;26.0;53.13;7379;2018-04-16 23:29:25:168
-3.938;-9.857;3.771;-3.173;-9.251;-0.724;-0.766;-0.606;4.495;-2.042;2.54;0.431;-2.0;11.5;26.1;53.13;7389;2018-04-16 23:29:25:178
-3.419;-10.238;1.389;-3.173;-9.251;-0.724;-0.766;-0.606;4.495;-1.382;2.475;0.37;-2.0;11.5;26.1;53.13;7400;2018-04-16 23:29:25:189
-3.419;-10.238;1.389;-3.2;-9.205;-1.096;-0.133;-1.078;2.296;-1.089;2.16;0.384;-2.0;11.5;26.1;53.13;7409;2018-04-16 23:29:25:198
-2.631;-10.177;1.46;-3.2;-9.205;-1.096;-0.133;-1.078;2.296;-0.616;1.445;0.387;-2.3;11.1;26.2;53.13;7420;2018-04-16 23:29:25:209
-1.946;-10.215;0.675;-3.232;-9.168;-1.292;1.286;-1.047;1.967;-0.616;1.445;0.387;-3.4;9.4;27.0;53.13;7430;2018-04-16 23:29:25:219
-0.955;-10.01;-1.372;-3.245;-9.157;-1.338;2.29;-0.853;-0.034;0.071;0.644;0.208;-4.1;8.6;27.3;53.13;7440;2018-04-16 23:29:25:229
-0.955;-10.01;-1.372;-3.245;-9.157;-1.338;2.29;-0.853;-0.034;0.071;0.644;0.208;-4.1;8.6;27.3;53.13;7456;2018-04-16 23:29:25:245
-0.955;-10.01;-1.372;-3.245;-9.157;-1.338;2.29;-0.853;-0.034;0.071;0.644;0.208;-4.1;8.6;27.3;53.13;7460;2018-04-16 23:29:25:249
-0.664;-9.421;-0.175;-3.245;-9.157;-1.338;2.29;-0.853;-0.034;-0.149;1.396;-0.039;-4.9;7.6;26.9;53.13;7470;2018-04-16 23:29:25:259
-0.664;-9.421;-0.175;-3.143;-9.166;-1.506;2.469;-0.138;1.406;-0.36;2.613;-0.307;-4.9;7.6;26.9;53.13;7479;2018-04-16 23:29:25:268
-0.585;-9.251;-0.095;-3.061;-9.174;-1.626;2.475;-0.078;1.532;-0.36;2.613;-0.307;-5.7;7.0;26.8;53.08;7490;2018-04-16 23:29:25:279
-1.761;-9.17;-0.578;-3.061;-9.174;-1.626;2.475;-0.078;1.532;-0.177;2.453;-0.458;-5.7;7.0;26.8;53.08;7499;2018-04-16 23:29:25:288
-1.761;-9.17;-0.578;-2.888;-9.206;-1.757;0.853;0.006;1.028;0.065;1.945;-0.522;-7.1;6.4;26.1;53.08;7509;2018-04-16 23:29:25:298
-2.415;-9.149;-1.24;-2.888;-9.206;-1.757;0.853;0.006;1.028;0.16;0.437;-0.474;-7.1;6.4;26.1;53.08;7519;2018-04-16 23:29:25:308
-2.853;-9.013;-0.02;-2.784;-9.239;-1.749;-0.002;0.1;1.305;-0.037;-0.032;-0.367;-7.8;6.1;25.6;53.08;7529;2018-04-16 23:29:25:318
-2.853;-9.013;-0.02;-2.784;-9.239;-1.749;-0.002;0.1;1.305;-0.037;-0.032;-0.367;-7.8;6.1;25.6;53.08;7539;2018-04-16 23:29:25:328
-2.98;-8.847;-0.242;-2.738;-9.246;-1.783;-0.242;0.4;1.541;-0.38;-0.071;-0.244;-8.4;5.4;25.8;53.08;7549;2018-04-16 23:29:25:338
-3.567;-8.566;-0.731;-2.738;-9.246;-1.783;-0.242;0.4;1.541;-0.676;-0.038;-0.187;-8.4;5.4;25.8;53.08;7559;2018-04-16 23:29:25:348
-3.567;-8.566;-0.731;-2.715;-9.224;-1.928;-0.968;0.857;1.089;-0.958;-0.02;-0.128;-8.4;5.2;26.6;53.08;7569;2018-04-16 23:29:25:358
-3.942;-7.849;-1.085;-2.715;-9.224;-1.928;-0.968;0.857;1.089;-1.179;0.031;-0.044;-8.4;5.2;26.6;53.08;7579;2018-04-16 23:29:25:368
-4.046;-7.211;-1.197;-2.705;-9.179;-2.144;-1.292;1.831;0.894;-1.184;0.002;-0.071;-8.5;4.8;26.6;53.08;7589;2018-04-16 23:29:25:378
-4.046;-7.211;-1.197;-2.705;-9.179;-2.144;-1.292;1.831;0.894;-1.081;-0.07;-0.087;-8.5;4.8;26.6;53.08;7599;2018-04-16 23:29:25:388
-3.777;-6.84;-0.702;-2.693;-9.136;-2.335;-1.083;2.296;1.633;-0.902;-0.137;-0.084;-8.6;3.9;26.9;53.08;7609;2018-04-16 23:29:25:398
-3.174;-6.384;-0.145;-2.693;-9.136;-2.335;-1.083;2.296;1.633;-0.683;-0.099;-0.061;-8.6;3.9;26.9;53.08;7619;2018-04-16 23:29:25:408
-3.174;-6.384;-0.145;-2.687;-9.107;-2.452;-0.313;2.779;2.287;-0.463;-0.043;-0.049;-9.1;3.7;26.2;53.08;7630;2018-04-16 23:29:25:419
-2.637;-6.268;-0.262;-2.684;-9.1;-2.481;0.047;2.832;2.219;-0.258;-0.013;-0.032;-9.1;3.7;26.2;53.08;7639;2018-04-16 23:29:25:428
-2.037;-6.268;-0.52;-2.684;-9.1;-2.481;0.047;2.832;2.219;-0.068;-0.053;-0.011;-8.6;4.1;26.9;53.08;7650;2018-04-16 23:29:25:439
-2.037;-6.268;-0.52;-2.684;-9.097;-2.492;0.798;2.809;1.966;-0.068;-0.053;-0.011;-8.6;4.1;26.9;53.08;7659;2018-04-16 23:29:25:448
-1.702;-6.352;-0.433;-2.684;-9.097;-2.492;0.798;2.809;1.966;0.182;-0.197;0.015;-8.8;4.1;26.6;53.08;7670;2018-04-16 23:29:25:459
-1.365;-6.269;-0.359;-2.702;-9.107;-2.434;1.219;2.778;2.098;0.39;-0.304;0.078;-8.8;4.1;26.6;53.08;7679;2018-04-16 23:29:25:468
-1.365;-6.269;-0.359;-2.702;-9.107;-2.434;1.219;2.778;2.098;0.39;-0.304;0.078;-8.8;4.1;26.6;53.08;7690;2018-04-16 23:29:25:479
-1.403;-6.202;-0.488;-2.739;-9.125;-2.323;1.336;2.923;1.835;0.512;-0.337;0.116;-9.3;3.8;26.6;53.08;7700;2018-04-16 23:29:25:489
-1.47;-6.164;-0.781;-2.768;-9.135;-2.247;1.298;2.972;1.467;0.649;-0.385;0.202;-9.3;3.8;26.6;53.08;7710;2018-04-16 23:29:25:499
-1.47;-6.164;-0.781;-2.768;-9.135;-2.247;1.298;2.972;1.467;0.695;-0.441;0.25;-9.6;3.6;26.5;53.08;7720;2018-04-16 23:29:25:509
-1.567;-6.456;-1.307;-2.768;-9.135;-2.247;1.298;2.972;1.467;0.695;-0.441;0.25;-9.8;3.5;26.4;53.08;7730;2018-04-16 23:29:25:519
-1.567;-6.456;-1.307;-2.841;-9.15;-2.091;1.223;2.483;0.581;0.678;-0.553;0.293;-9.8;3.5;26.4;53.08;7739;2018-04-16 23:29:25:528
-1.781;-8.376;-2.818;-2.841;-9.15;-2.091;1.223;2.483;0.581;0.418;-0.844;0.307;-10.1;3.3;26.2;53.08;7750;2018-04-16 23:29:25:539
-1.35;-9.966;-3.965;-2.967;-9.147;-1.924;1.347;-0.24;-1.58;-0.176;-1.319;0.275;-10.1;3.3;26.2;53.08;7759;2018-04-16 23:29:25:548
-1.35;-9.966;-3.965;-2.967;-9.147;-1.924;1.347;-0.24;-1.58;-0.49;-1.556;0.159;-10.3;3.2;26.2;53.08;7770;2018-04-16 23:29:25:559
-0.871;-11.322;-5.132;-3.061;-9.121;-1.897;2.19;-2.201;-3.235;-0.735;-1.783;0.011;-10.3;3.2;26.2;53.08;7780;2018-04-16 23:29:25:569
-0.533;-12.73;-7.269;-3.061;-9.121;-1.897;2.19;-2.201;-3.235;-0.892;-2.001;-0.09;-10.3;3.2;26.3;53.08;7790;2018-04-16 23:29:25:579
-0.533;-12.73;-7.269;-3.126;-9.093;-1.928;2.686;-3.8;-5.954;-0.927;-2.148;-0.12;-10.3;3.2;26.3;53.08;7800;2018-04-16 23:29:25:589
-0.175;-12.862;-8.592;-3.159;-9.078;-1.946;2.984;-3.784;-6.645;-0.88;-2.002;-0.155;-10.1;3.1;26.4;56.1;7810;2018-04-16 23:29:25:599
-0.849;-12.532;-8.565;-3.159;-9.078;-1.946;2.984;-3.784;-6.645;-0.88;-2.002;-0.155;-10.1;3.1;26.4;56.1;7819;2018-04-16 23:29:25:608
-0.849;-12.532;-8.565;-3.158;-9.065;-2.007;1.913;-3.355;-6.286;-0.761;-1.003;-0.358;-9.9;3.0;26.6;56.1;7830;2018-04-16 23:29:25:619
-2.185;-11.972;-7.282;-3.158;-9.065;-2.007;1.913;-3.355;-6.286;-0.425;0.192;-0.464;-9.9;3.0;26.6;56.1;7840;2018-04-16 23:29:25:629
-3.086;-11.079;-5.657;-3.067;-9.077;-2.091;0.229;-2.34;-4.109;-0.059;0.683;-0.457;-9.5;3.0;26.7;56.1;7850;2018-04-16 23:29:25:639
-3.086;-11.079;-5.657;-3.067;-9.077;-2.091;-0.126;-1.542;-3.204;-0.059;0.683;-0.457;-9.5;3.0;26.7;56.1;7859;2018-04-16 23:29:25:648
-3.232;-10.276;-4.961;-3.067;-9.077;-2.091;-0.126;-1.542;-3.204;0.327;0.913;-0.437;-9.4;2.9;26.8;56.1;7870;2018-04-16 23:29:25:659
-3.545;-9.483;-4.519;-2.95;-9.117;-2.083;-0.358;-0.925;-2.532;0.921;0.787;-0.53;-9.2;2.8;26.8;56.1;7880;2018-04-16 23:29:25:669
-3.545;-9.483;-4.519;-2.823;-9.185;-1.961;-1.177;-0.213;-3.213;0.889;0.2;-0.589;-9.2;2.8;26.8;56.1;7890;2018-04-16 23:29:25:679
-4.621;-9.163;-3.284;-2.823;-9.185;-1.961;-1.177;-0.213;-3.213;0.666;-0.473;-0.432;-8.9;2.8;26.8;56.1;7899;2018-04-16 23:29:25:688
-4.94;-8.696;-1.077;-2.77;-9.231;-1.815;-1.977;0.491;-0.314;0.418;-0.943;-0.21;-8.9;2.8;26.8;56.1;7910;2018-04-16 23:29:25:699
-4.94;-8.696;-1.077;-2.77;-9.231;-1.815;-1.977;0.491;-0.314;0.418;-0.943;-0.21;-8.7;2.9;26.9;56.1;7919;2018-04-16 23:29:25:708
-5.266;-9.019;0.642;-2.814;-9.237;-1.71;-2.452;0.218;2.352;0.057;-1.164;0.017;-8.7;2.9;26.9;56.1;7929;2018-04-16 23:29:25:718
-5.089;-9.74;-1.665;-2.814;-9.237;-1.71;-2.452;0.218;2.352;-0.188;-0.931;0.071;-8.4;3.0;27.0;56.1;7940;2018-04-16 23:29:25:729
-5.089;-9.74;-1.665;-2.858;-9.227;-1.693;-2.023;-0.677;-1.03;-0.351;-0.937;0.062;-8.4;3.0;27.0;56.1;7949;2018-04-16 23:29:25:738
-3.968;-10.54;-5.555;-2.858;-9.227;-1.693;-2.023;-0.677;-1.03;-0.351;-0.937;0.062;-8.4;3.0;27.0;56.1;7959;2018-04-16 23:29:25:748
-3.968;-10.54;-5.555;-2.895;-9.206;-1.745;0.06;-2.193;-6.801;-0.556;-0.996;0.024;-8.1;3.1;27.0;56.1;7969;2018-04-16 23:29:25:758
-1.87;-11.625;-9.091;-2.895;-9.206;-1.745;0.06;-2.193;-6.801;-1.151;-0.671;-0.099;-7.8;3.2;27.1;56.1;7980;2018-04-16 23:29:25:769
-0.384;-10.618;-2.832;-2.866;-9.165;-1.987;2.482;-1.453;-0.845;-1.51;0.384;-0.23;-7.8;3.2;27.1;56.1;7989;2018-04-16 23:29:25:778
0.761;-5.303;5.446;-2.866;-9.165;-1.987;2.482;-1.453;-0.845;-1.153;1.224;-0.248;-7.4;3.3;27.2;56.1;8000;2018-04-16 23:29:25:789
0.761;-5.303;5.446;-2.764;-9.151;-2.189;3.645;5.239;8.223;-0.321;1.417;-0.248;-7.4;3.3;27.2;56.1;8010;2018-04-16 23:29:25:799
0.029;-2.121;6.036;-2.764;-9.151;-2.189;3.645;5.239;8.223;-0.321;1.417;-0.248;-7.4;3.3;27.2;56.1;8019;2018-04-16 23:29:25:808
0.029;-2.121;6.036;-2.638;-9.216;-2.069;0.862;6.935;7.797;0.806;0.489;-0.564;-7.1;3.3;27.3;56.1;8030;2018-04-16 23:29:25:819
-4.397;-3.988;4.31;-2.638;-9.216;-2.069;0.862;6.935;7.797;0.806;0.489;-0.564;-7.1;3.3;27.3;56.1;8039;2018-04-16 23:29:25:828
-6.325;-7.241;1.678;-2.533;-9.297;-1.821;-3.792;2.056;3.499;1.211;0.042;-0.641;-6.9;3.3;27.3;56.1;8050;2018-04-16 23:29:25:839
-7.912;-11.618;-4.736;-2.533;-9.297;-1.821;-3.792;2.056;3.499;1.06;0.219;-0.454;-6.8;3.2;27.4;56.1;8060;2018-04-16 23:29:25:849
-7.912;-11.618;-4.736;-2.483;-9.341;-1.66;-5.222;-2.983;-3.47;0.751;0.006;-0.089;-6.8;3.2;27.4;56.1;8070;2018-04-16 23:29:25:859
-6.586;-12.591;-2.662;-2.483;-9.341;-1.66;-5.222;-2.983;-3.47;0.193;-0.586;0.458;-6.7;3.2;27.2;56.1;8080;2018-04-16 23:29:25:869
-5.083;-10.743;1.945;-2.599;-9.317;-1.615;-2.883;-2.203;2.186;-0.007;-0.269;0.585;-6.7;3.2;27.2;56.1;8090;2018-04-16 23:29:25:879
-5.083;-10.743;1.945;-2.599;-9.317;-1.615;-2.883;-2.203;2.186;0.002;0.197;0.486;-6.6;3.3;27.4;56.1;8099;2018-04-16 23:29:25:888
-4.735;-9.527;2.515;-2.683;-9.292;-1.622;-2.051;-0.235;4.137;0.002;0.197;0.486;-6.6;3.3;27.4;56.1;8110;2018-04-16 23:29:25:899
-4.426;-8.465;1.832;-2.683;-9.292;-1.622;-2.051;-0.235;4.137;0.077;0.464;0.408;-6.5;3.4;27.3;56.1;8120;2018-04-16 23:29:25:909
-4.426;-8.465;1.832;-2.761;-9.276;-1.582;-1.497;0.996;3.197;0.283;0.43;0.464;-6.5;3.4;27.3;56.1;8129;2018-04-16 23:29:25:918
-3.971;-7.994;0.956;-2.761;-9.276;-1.582;-1.497;0.996;3.197;0.494;0.023;0.547;-6.6;3.5;27.3;56.1;8139;2018-04-16 23:29:25:928
-3.966;-8.429;0.321;-2.867;-9.26;-1.484;-1.089;1.075;2.025;0.494;0.023;0.547;-6.6;3.5;27.3;59.1;8149;2018-04-16 23:29:25:938
-3.966;-8.429;0.321;-2.867;-9.26;-1.484;-1.089;1.075;2.025;0.607;-0.435;0.638;-6.6;3.5;27.3;59.1;8160;2018-04-16 23:29:25:949
-3.814;-9.232;-0.06;-3.015;-9.239;-1.314;-0.645;-0.166;1.357;0.707;-0.71;0.712;-6.7;3.7;27.3;59.1;8170;2018-04-16 23:29:25:959
-3.309;-9.767;0.631;-3.015;-9.239;-1.314;-0.645;-0.166;1.357;0.832;-0.81;0.638;-6.7;3.8;27.3;59.1;8180;2018-04-16 23:29:25:969
-3.375;-10.222;0.656;-3.15;-9.221;-1.108;-0.21;-0.821;1.991;0.814;-0.618;0.489;-6.6;3.9;27.4;59.1;8190;2018-04-16 23:29:25:979
-3.375;-10.222;0.656;-3.15;-9.221;-1.108;-0.21;-0.821;1.991;0.761;-0.432;0.404;-6.6;3.9;27.4;59.1;8199;2018-04-16 23:29:25:988
-3.197;-10.479;0.17;-3.235;-9.21;-0.939;0.037;-1.269;1.109;0.761;-0.432;0.404;-6.6;3.9;27.4;59.1;8210;2018-04-16 23:29:25:999
-2.447;-10.25;0.001;-3.235;-9.21;-0.939;0.037;-1.269;1.109;0.759;-0.354;0.408;-6.5;4.0;27.4;59.1;8220;2018-04-16 23:29:26:009
-2.447;-10.25;0.001;-3.313;-9.199;-0.759;0.976;-0.944;0.8;0.882;-0.4;0.393;-6.5;4.3;27.4;59.1;8230;2018-04-16 23:29:26:019
-2.35;-10.057;0.147;-3.313;-9.199;-0.759;0.976;-0.944;0.8;0.953;-0.374;0.303;-6.5;4.3;27.4;59.1;8240;2018-04-16 23:29:26:029
-2.407;-10.01;0.178;-3.362;-9.196;-0.558;0.954;-0.815;0.736;0.966;-0.244;0.237;-6.4;4.4;27.3;59.1;8249;2018-04-16 23:29:26:038
-2.131;-9.675;0.13;-3.362;-9.196;-0.558;0.954;-0.815;0.736;0.949;-0.011;0.204;-6.4;4.4;27.3;59.1;8260;2018-04-16 23:29:26:049
-2.131;-9.675;0.13;-3.387;-9.195;-0.38;1.347;-0.419;0.446;0.949;-0.011;0.204;-6.4;4.7;27.3;59.1;8270;2018-04-16 23:29:26:059
-1.607;-9.511;-0.153;-3.387;-9.195;-0.38;1.347;-0.419;0.446;0.922;0.136;0.178;-6.4;4.7;27.3;59.1;8279;2018-04-16 23:29:26:068
-1.599;-9.566;0.006;-3.396;-9.197;-0.228;1.899;-0.337;0.132;0.856;0.145;0.127;-6.4;5.0;27.3;59.1;8289;2018-04-16 23:29:26:078
-1.599;-9.566;0.006;-3.396;-9.197;-0.228;1.899;-0.337;0.132;0.732;0.15;0.101;-6.4;5.0;27.3;59.1;8299;2018-04-16 23:29:26:088
-1.67;-9.301;0.45;-3.4;-9.198;-0.102;1.73;-0.104;0.552;0.732;0.15;0.101;-6.3;5.4;27.2;59.1;8309;2018-04-16 23:29:26:098
-1.336;-9.124;-0.034;-3.4;-9.198;-0.102;1.73;-0.104;0.552;0.648;0.195;0.134;-6.3;5.4;27.2;59.1;8320;2018-04-16 23:29:26:109
-1.336;-9.124;-0.034;-3.414;-9.193;0.003;2.212;0.108;-0.167;0.608;0.13;0.132;-6.2;5.9;27.1;59.1;8330;2018-04-16 23:29:26:119
-1.211;-9.177;-0.364;-3.414;-9.193;0.003;2.212;0.108;-0.167;0.586;-0.086;0.099;-6.2;5.9;27.1;59.1;8340;2018-04-16 23:29:26:129
-1.268;-9.182;-0.577;-3.416;-9.192;0.133;2.148;0.01;-0.71;0.627;-0.586;0.066;-6.2;5.9;27.1;59.1;8349;2018-04-16 23:29:26:138
-1.268;-9.182;-0.577;-3.416;-9.192;0.133;2.148;0.01;-0.71;0.668;-0.991;0.043;-6.1;6.3;27.2;59.1;8360;2018-04-16 23:29:26:149
-1.384;-9.287;-0.796;-3.403;-9.191;0.333;2.019;-0.096;-1.129;0.706;-1.387;0.021;-6.1;6.3;27.2;59.1;8370;2018-04-16 23:29:26:159
-1.384;-9.287;-0.796;-3.403;-9.191;0.333;2.019;-0.096;-1.129;0.706;-1.387;0.021;-6.0;6.7;27.2;59.1;8379;2018-04-16 23:29:26:168
-1.624;-9.171;-0.481;-3.379;-9.188;0.577;1.755;0.017;-1.058;0.689;-1.955;0.033;-5.8;7.2;27.2;59.1;8390;2018-04-16 23:29:26:179
-1.669;-8.793;-0.011;-3.379;-9.188;0.577;1.755;0.017;-1.058;0.655;-1.999;0.035;-5.8;7.2;27.2;59.1;8399;2018-04-16 23:29:26:188
-1.669;-8.793;-0.011;-3.353;-9.179;0.819;1.701;0.465;-0.775;0.6;-1.877;0.02;-5.6;7.5;27.1;59.1;8409;2018-04-16 23:29:26:198
-1.768;-8.635;0.225;-3.353;-9.179;0.819;1.701;0.465;-0.775;0.459;-1.467;-0.031;-5.6;7.5;27.1;59.1;8420;2018-04-16 23:29:26:209
-1.805;-8.662;0.359;-3.319;-9.174;0.996;1.498;0.492;-0.673;0.326;-1.122;-0.055;-5.3;7.9;27.0;59.1;8429;2018-04-16 23:29:26:218
-1.805;-8.662;0.359;-3.304;-9.174;1.045;1.574;0.555;-0.688;0.171;-0.809;-0.066;-5.3;7.9;27.0;59.1;8440;2018-04-16 23:29:26:229
-1.612;-8.58;0.45;-3.289;-9.176;1.077;1.676;0.596;-0.627;0.087;-0.671;-0.076;-5.0;8.4;26.9;59.1;8451;2018-04-16 23:29:26:240
-1.612;-8.58;0.45;-3.289;-9.176;1.077;1.676;0.596;-0.627;0.087;-0.671;-0.076;-5.0;8.4;26.9;59.1;8460;2018-04-16 23:29:26:249
-1.55;-8.54;1.155;-3.26;-9.187;1.071;1.71;0.646;0.085;-0.215;-0.221;-0.125;-4.6;8.8;26.7;53.55;8469;2018-04-16 23:29:26:258
-1.68;-8.374;2.048;-3.26;-9.187;1.071;1.71;0.646;0.085;-0.279;-0.004;-0.15;-4.6;8.8;26.7;53.55;8480;2018-04-16 23:29:26:269
-1.68;-8.374;2.048;-3.231;-9.203;1.017;1.482;0.796;1.229;-0.236;0.236;-0.182;-4.3;9.2;26.8;53.55;8490;2018-04-16 23:29:26:279
-2.0;-8.665;2.484;-3.231;-9.203;1.017;1.482;0.796;1.229;-0.089;0.496;-0.217;-4.3;9.2;26.8;53.55;8500;2018-04-16 23:29:26:289
-2.69;-9.396;2.201;-3.193;-9.219;0.991;0.803;0.078;1.358;0.125;0.748;-0.241;-4.0;9.5;26.8;53.55;8509;2018-04-16 23:29:26:298
-2.69;-9.396;2.201;-3.178;-9.223;1.0;0.255;-0.348;1.151;0.389;0.919;-0.255;-4.0;9.5;26.8;53.55;8520;2018-04-16 23:29:26:309
-3.542;-9.868;1.952;-3.178;-9.223;1.0;0.255;-0.348;1.151;0.732;0.971;-0.255;-3.7;9.9;26.8;53.55;8530;2018-04-16 23:29:26:319
-3.542;-9.868;1.952;-3.151;-9.22;1.11;-0.703;-0.775;0.403;1.153;0.91;-0.249;-3.7;9.9;26.8;53.55;8540;2018-04-16 23:29:26:329
-3.928;-10.004;1.115;-3.151;-9.22;1.11;-0.703;-0.775;0.403;1.153;0.91;-0.249;-3.7;9.9;26.8;53.55;8550;2018-04-16 23:29:26:339
-3.928;-10.004;1.115;-3.126;-9.195;1.362;-0.803;-0.782;-0.616;1.653;0.742;-0.242;-3.6;10.2;26.7;53.55;8560;2018-04-16 23:29:26:349
-3.881;-9.98;0.577;-3.126;-9.195;1.362;-0.803;-0.782;-0.616;1.792;0.705;-0.224;-3.4;10.5;26.7;53.55;8570;2018-04-16 23:29:26:359
-3.673;-9.908;-0.139;-3.11;-9.154;1.641;-0.562;-0.754;-1.779;1.751;0.709;-0.193;-3.4;10.5;26.7;53.55;8580;2018-04-16 23:29:26:369
-3.339;-9.87;-1.458;-3.11;-9.154;1.641;-0.562;-0.754;-1.779;1.668;0.599;-0.169;-3.4;10.9;26.5;53.55;8590;2018-04-16 23:29:26:379
-3.339;-9.87;-1.458;-3.101;-9.105;1.911;-0.073;-0.725;-3.684;1.665;0.217;-0.104;-3.4;10.9;26.5;53.55;8600;2018-04-16 23:29:26:389
-2.735;-9.717;-2.368;-3.101;-9.105;1.911;-0.073;-0.725;-3.684;1.899;-1.261;-0.043;-3.4;11.3;26.4;53.55;8610;2018-04-16 23:29:26:399
-2.334;-9.795;-2.409;-3.058;-9.035;2.276;0.668;-0.71;-4.729;1.899;-1.261;-0.043;-3.4;11.3;26.4;53.55;8620;2018-04-16 23:29:26:409
-2.334;-9.795;-2.409;-2.997;-8.993;2.514;0.695;-0.935;-4.883;1.811;-2.005;-0.088;-3.3;11.7;26.4;53.55;8630;2018-04-16 23:29:26:419
-2.339;-10.511;-2.344;-2.997;-8.993;2.514;0.695;-0.935;-4.883;1.473;-1.971;-0.05;-3.3;11.7;26.4;53.55;8640;2018-04-16 23:29:26:429
-2.295;-11.065;-2.485;-2.886;-8.919;2.88;0.591;-2.146;-5.365;1.473;-1.971;-0.05;-3.3;11.7;26.4;53.55;8649;2018-04-16 23:29:26:438
-2.295;-11.065;-2.485;-2.886;-8.919;2.88;0.591;-2.146;-5.365;1.004;-1.339;-0.026;-3.1;12.1;26.0;53.55;8660;2018-04-16 23:29:26:449
-1.982;-11.007;-1.365;-2.886;-8.919;2.88;0.591;-2.146;-5.365;1.004;-1.339;-0.026;-3.1;12.1;26.0;53.55;8669;2018-04-16 23:29:26:458
-1.982;-11.007;-1.365;-2.864;-8.91;2.929;0.939;-1.941;-3.849;-0.131;0.403;-0.099;-3.0;12.5;25.8;53.55;8680;2018-04-16 23:29:26:469
-2.053;-11.011;0.611;-2.92;-8.978;2.653;0.937;-2.126;-1.627;-1.026;1.685;-0.209;-2.9;13.0;25.6;53.55;8690;2018-04-16 23:29:26:479
-2.053;-11.011;0.611;-2.92;-8.978;2.653;0.937;-2.126;-1.627;-1.241;2.117;-0.249;-2.9;13.0;25.6;53.55;8699;2018-04-16 23:29:26:488
-1.502;-11.338;2.234;-2.978;-9.052;2.315;1.671;-2.383;0.12;-1.1;2.193;-0.28;-2.8;13.4;25.5;53.55;8710;2018-04-16 23:29:26:499
-1.071;-11.638;2.216;-2.978;-9.052;2.315;1.671;-2.383;0.12;-0.866;2.161;-0.309;-2.8;13.4;25.5;53.55;8720;2018-04-16 23:29:26:509
-0.906;-11.844;1.408;-3.01;-9.103;2.06;2.104;-2.741;-0.652;-0.602;1.897;-0.31;-3.0;13.7;25.3;53.55;8730;2018-04-16 23:29:26:519
-0.906;-11.844;1.408;-3.01;-9.103;2.06;2.104;-2.741;-0.652;-0.602;1.897;-0.31;-3.0;13.7;25.3;53.55;8740;2018-04-16 23:29:26:529
-1.007;-11.96;0.602;-2.99;-9.136;1.94;1.983;-2.824;-1.338;-0.296;1.157;-0.356;-3.3;14.0;25.2;53.55;8751;2018-04-16 23:29:26:540
-2.127;-11.366;0.882;-2.99;-9.136;1.94;1.983;-2.824;-1.338;-0.132;0.316;-0.371;-3.3;14.0;25.2;53.55;8760;2018-04-16 23:29:26:549
-2.127;-11.366;0.882;-2.924;-9.163;1.912;0.511;-2.158;-0.932;-0.109;-0.075;-0.389;-3.7;14.3;25.1;53.55;8769;2018-04-16 23:29:26:558
-3.115;-11.244;1.025;-2.924;-9.163;1.912;0.511;-2.158;-0.932;-0.155;-0.292;-0.458;-3.7;14.3;25.1;53.55;8780;2018-04-16 23:29:26:569
-4.226;-10.275;0.747;-2.819;-9.2;1.894;-1.049;-1.607;-0.929;-0.249;-0.406;-0.529;-4.0;14.6;25.0;52.73;8789;2018-04-16 23:29:26:578
-4.226;-10.275;0.747;-2.819;-9.2;1.894;-1.049;-1.607;-0.929;-0.352;-0.481;-0.544;-4.0;14.6;25.0;52.73;8799;2018-04-16 23:29:26:588
-4.842;-8.879;-0.278;-2.71;-9.243;1.845;-2.133;0.364;-2.122;-0.432;-0.584;-0.516;-4.3;15.0;24.9;52.73;8810;2018-04-16 23:29:26:599
-5.859;-8.162;-2.929;-2.71;-9.243;1.845;-2.133;0.364;-2.122;-0.535;-0.937;-0.371;-4.3;15.0;24.9;52.73;8819;2018-04-16 23:29:26:608
-5.859;-8.162;-2.929;-2.623;-9.28;1.781;-3.624;1.111;-5.566;-0.753;-1.273;-0.173;-4.6;15.2;24.8;52.73;8829;2018-04-16 23:29:26:618
-6.378;-8.191;-4.453;-2.623;-9.28;1.781;-3.624;1.111;-5.566;-1.241;-1.417;0.115;-4.6;15.2;24.8;52.73;8840;2018-04-16 23:29:26:629
-6.378;-8.191;-4.453;-2.603;-9.317;1.607;-3.27;1.081;-4.783;-1.241;-1.417;0.115;-4.6;15.2;24.8;52.73;8849;2018-04-16 23:29:26:638
-5.116;-8.289;-1.875;-2.644;-9.335;1.425;-2.097;0.921;-1.695;-1.962;-1.17;0.387;-4.8;15.4;24.8;52.73;8860;2018-04-16 23:29:26:649
-4.208;-9.03;2.407;-2.702;-9.358;1.136;-1.505;0.328;1.271;-2.9;-0.119;0.553;-4.8;15.4;24.8;52.73;8869;2018-04-16 23:29:26:658
-4.208;-9.03;2.407;-2.702;-9.358;1.136;-1.505;0.328;1.271;-3.219;1.216;0.478;-5.0;15.4;24.8;52.73;8880;2018-04-16 23:29:26:669
-3.869;-10.277;3.83;-2.812;-9.382;0.484;-1.057;-0.895;3.346;-3.117;1.461;0.421;-5.1;15.3;24.9;52.73;8889;2018-04-16 23:29:26:678
-3.869;-10.277;3.83;-2.812;-9.382;0.484;-1.057;-0.895;3.346;-3.117;1.461;0.421;-5.1;15.3;24.9;52.73;8899;2018-04-16 23:29:26:688
-4.347;-11.303;4.566;-2.894;-9.369;-0.149;-1.481;-2.084;5.029;-2.882;1.542;0.412;-5.1;15.1;25.0;52.73;8910;2018-04-16 23:29:26:699
-4.848;-11.608;5.76;-2.922;-9.353;-0.399;-1.927;-2.255;6.159;-2.401;1.778;0.373;-5.3;14.3;25.5;52.73;8922;2018-04-16 23:29:26:711
-4.848;-11.608;5.76;-2.922;-9.353;-0.399;-1.927;-2.255;6.159;-1.956;1.979;0.348;-5.3;14.3;25.5;52.73;8929;2018-04-16 23:29:26:718
-4.385;-10.813;5.476;-2.953;-9.313;-0.846;-1.345;-1.439;5.881;-1.956;1.979;0.348;-5.3;14.3;25.5;52.73;8940;2018-04-16 23:29:26:729
-4.187;-10.58;4.1;-2.946;-9.296;-1.042;-1.242;-1.284;5.142;-1.322;2.276;0.205;-6.0;12.8;26.0;52.73;8950;2018-04-16 23:29:26:739
-4.144;-10.059;1.528;-2.946;-9.296;-1.042;-1.242;-1.284;5.142;-0.891;2.359;0.187;-7.3;11.1;26.5;52.73;8959;2018-04-16 23:29:26:748
-4.144;-10.059;1.528;-2.928;-9.263;-1.343;-0.527;-0.884;1.334;-0.694;2.027;0.282;-7.3;11.1;26.5;52.73;8969;2018-04-16 23:29:26:758
-2.661;-10.212;-1.876;-2.928;-9.263;-1.343;-0.527;-0.884;1.334;-0.694;2.027;0.282;-7.3;11.1;26.5;52.73;8979;2018-04-16 23:29:26:768
-2.003;-9.94;-2.626;-2.953;-9.232;-1.487;0.95;-0.707;-1.139;-0.396;1.212;0.338;-8.0;10.4;26.9;52.73;8990;2018-04-16 23:29:26:779
-1.438;-9.561;-2.016;-2.953;-9.232;-1.487;0.95;-0.707;-1.139;-0.128;0.391;0.255;-8.6;9.7;27.2;52.73;9000;2018-04-16 23:29:26:789
-1.438;-9.561;-2.016;-2.961;-9.221;-1.542;1.478;-0.336;-0.467;-0.125;0.435;0.119;-8.6;9.7;27.2;52.73;9010;2018-04-16 23:29:26:799
-1.85;-9.384;-1.21;-2.961;-9.221;-1.542;1.478;-0.336;-0.467;-0.242;0.789;0.015;-8.6;9.7;27.2;52.73;9019;2018-04-16 23:29:26:808
-1.85;-9.384;-1.21;-2.917;-9.215;-1.658;1.224;0.302;1.42;-0.242;0.789;0.015;-9.5;8.9;27.0;52.73;9030;2018-04-16 23:29:26:819
-1.356;-8.477;1.183;-2.917;-9.215;-1.658;1.224;0.302;1.42;-0.368;1.563;-0.138;-9.8;8.9;27.8;52.73;9040;2018-04-16 23:29:26:829
-2.225;-8.454;1.447;-2.793;-9.225;-1.806;0.568;0.771;3.253;-0.12;2.084;-0.356;-9.8;8.9;27.8;52.73;9050;2018-04-16 23:29:26:839
-2.225;-8.454;1.447;-2.793;-9.225;-1.806;0.568;0.771;3.253;-0.12;2.084;-0.356;-9.8;8.9;27.8;52.73;9059;2018-04-16 23:29:26:848
-2.788;-8.509;0.043;-2.651;-9.256;-1.861;-0.353;0.715;1.754;0.214;1.817;-0.423;-11.1;8.3;28.0;52.73;9069;2018-04-16 23:29:26:858
-3.527;-8.625;-1.243;-2.651;-9.256;-1.861;-0.353;0.715;1.754;0.275;1.17;-0.385;-11.8;7.5;26.7;52.73;9080;2018-04-16 23:29:26:869
-3.974;-7.881;-0.306;-2.569;-9.277;-1.871;-1.256;0.951;1.182;0.024;0.495;-0.266;-11.8;7.5;26.7;52.73;9090;2018-04-16 23:29:26:879
-3.974;-7.881;-0.306;-2.569;-9.277;-1.871;-1.256;0.951;1.182;-0.248;0.115;-0.086;-11.9;7.8;27.2;52.73;9099;2018-04-16 23:29:26:888
-4.022;-7.186;-0.745;-2.57;-9.261;-1.948;-1.452;2.075;1.204;-0.523;0.018;0.098;-11.9;7.8;27.2;52.91;9110;2018-04-16 23:29:26:899
-4.022;-7.186;-0.745;-2.57;-9.261;-1.948;-1.452;2.075;1.204;-0.991;0.034;0.318;-12.2;7.1;26.3;52.91;9119;2018-04-16 23:29:26:908
-4.434;-6.498;-0.458;-2.626;-9.204;-2.136;-1.808;2.706;1.677;-1.188;0.173;0.371;-12.2;7.1;26.3;52.91;9130;2018-04-16 23:29:26:919
-4.779;-6.134;-0.686;-2.626;-9.204;-2.136;-1.808;2.706;1.677;-1.269;0.277;0.365;-12.2;7.0;26.8;52.91;9139;2018-04-16 23:29:26:928
-4.779;-6.134;-0.686;-2.682;-9.128;-2.377;-2.148;3.07;1.696;-1.151;0.27;0.36;-12.2;7.0;26.8;52.91;9150;2018-04-16 23:29:26:939
-4.414;-5.993;-0.693;-2.682;-9.128;-2.377;-2.148;3.07;1.696;-0.902;0.14;0.341;-12.2;6.6;27.5;52.91;9159;2018-04-16 23:29:26:948
-3.163;-6.252;-0.294;-2.736;-9.059;-2.572;-0.914;2.93;2.172;-0.558;-0.137;0.297;-12.2;6.6;27.5;52.91;9170;2018-04-16 23:29:26:959
-3.163;-6.252;-0.294;-2.761;-9.043;-2.6;-0.005;2.729;2.381;-0.231;-0.268;0.257;-12.2;6.1;27.5;52.91;9180;2018-04-16 23:29:26:969
-2.028;-6.363;-0.119;-2.761;-9.043;-2.6;-0.005;2.729;2.381;-0.231;-0.268;0.257;-12.2;6.1;27.5;52.91;9189;2018-04-16 23:29:26:978
-2.028;-6.363;-0.119;-2.812;-9.032;-2.584;1.165;2.532;2.491;0.035;-0.221;0.215;-12.0;6.1;27.1;52.91;9199;2018-04-16 23:29:26:988
-1.531;-6.59;-0.232;-2.812;-9.032;-2.584;1.165;2.532;2.491;0.352;-0.132;0.199;-12.2;6.2;27.4;52.91;9209;2018-04-16 23:29:26:998
-1.328;-6.555;-0.59;-2.858;-9.042;-2.498;1.53;2.487;1.908;0.519;-0.169;0.228;-12.2;6.2;27.4;52.91;9220;2018-04-16 23:29:27:009
-1.051;-6.693;-1.026;-2.858;-9.042;-2.498;1.53;2.487;1.908;0.644;-0.283;0.259;-12.5;6.0;27.2;52.91;9230;2018-04-16 23:29:27:019
-1.051;-6.693;-1.026;-2.922;-9.061;-2.353;1.93;2.273;1.185;0.742;-0.437;0.265;-13.0;5.7;27.2;52.91;9240;2018-04-16 23:29:27:029
-0.898;-7.354;-1.645;-2.963;-9.072;-2.255;2.066;1.718;0.61;0.773;-0.628;0.253;-13.0;5.7;27.2;52.91;9249;2018-04-16 23:29:27:038
-0.898;-7.354;-1.645;-2.963;-9.072;-2.255;2.066;1.718;0.61;0.729;-0.96;0.2;-13.3;5.6;27.1;52.91;9260;2018-04-16 23:29:27:049
-0.839;-9.175;-2.468;-3.031;-9.093;-2.072;2.192;-0.081;-0.397;0.64;-1.163;0.164;-13.3;5.6;27.1;52.91;9270;2018-04-16 23:29:27:059
-0.818;-10.135;-3.286;-3.066;-9.1;-1.99;2.249;-1.035;-1.296;0.64;-1.163;0.164;-13.3;5.6;27.1;52.91;9279;2018-04-16 23:29:27:068
-0.818;-10.135;-3.286;-3.066;-9.1;-1.99;2.249;-1.035;-1.296;0.469;-1.361;0.139;-13.6;5.5;27.1;52.91;9290;2018-04-16 23:29:27:079
-0.776;-11.322;-4.514;-3.157;-9.098;-1.851;2.463;-2.36;-2.927;0.221;-1.583;0.172;-13.7;5.5;27.0;52.91;9301;2018-04-16 23:29:27:090
-0.362;-11.685;-5.6;-3.214;-9.088;-1.804;2.852;-2.597;-3.796;-0.181;-1.87;0.203;-13.7;5.5;27.0;52.91;9310;2018-04-16 23:29:27:099
-0.362;-11.685;-5.6;-3.214;-9.088;-1.804;2.852;-2.597;-3.796;-0.181;-1.87;0.203;-13.7;5.5;27.0;52.91;9319;2018-04-16 23:29:27:108
-0.065;-11.96;-7.098;-3.311;-9.06;-1.766;3.086;-3.028;-5.895;-0.538;-2.12;0.125;-13.8;5.5;27.1;52.91;9329;2018-04-16 23:29:27:118
-0.85;-12.288;-8.594;-3.311;-9.06;-1.766;3.086;-3.028;-5.895;-0.877;-2.005;-0.037;-13.8;5.4;27.1;52.91;9339;2018-04-16 23:29:27:128
-1.663;-12.28;-8.915;-3.357;-9.032;-1.822;1.694;-3.248;-7.093;-1.038;-1.611;-0.136;-13.8;5.4;27.1;52.91;9350;2018-04-16 23:29:27:139
-2.654;-11.566;-7.496;-3.357;-9.032;-1.822;1.694;-3.248;-7.093;-0.949;-0.699;-0.279;-13.5;5.3;27.2;52.91;9360;2018-04-16 23:29:27:149
-2.844;-10.101;-6.606;-3.33;-9.017;-1.944;0.553;-2.113;-5.19;-0.621;-0.02;-0.34;-13.4;5.3;27.3;52.91;9369;2018-04-16 23:29:27:158
-2.844;-10.101;-6.606;-3.296;-9.02;-1.985;0.44;-0.284;-4.249;-0.621;-0.02;-0.34;-13.4;5.3;27.3;52.91;9380;2018-04-16 23:29:27:169
-2.798;-7.792;-4.403;-3.296;-9.02;-1.985;0.44;-0.284;-4.249;0.072;0.715;-0.431;-13.4;5.3;27.3;52.91;9389;2018-04-16 23:29:27:178
-2.72;-6.275;-2.685;-3.175;-9.061;-1.997;0.47;2.392;-0.674;0.837;1.229;-0.607;-13.1;5.2;27.5;52.91;9402;2018-04-16 23:29:27:191
-2.72;-6.275;-2.685;-3.175;-9.061;-1.997;0.47;2.392;-0.674;0.837;1.229;-0.607;-13.1;5.2;27.5;52.91;9409;2018-04-16 23:29:27:198
-4.928;-7.102;-1.293;-3.078;-9.108;-1.936;-0.253;2.789;-1.432;1.199;0.863;-0.826;-12.8;5.1;27.5;52.91;9419;2018-04-16 23:29:27:208
-6.354;-7.031;0.273;-2.932;-9.193;-1.748;-2.938;2.034;1.448;1.161;0.286;-0.671;-12.6;5.1;27.7;52.91;9429;2018-04-16 23:29:27:218
-6.354;-7.031;0.273;-2.932;-9.193;-1.748;-2.938;2.034;1.448;0.568;-0.722;-0.171;-12.6;5.1;27.7;52.91;9440;2018-04-16 23:29:27:229
-7.679;-7.36;1.636;-2.919;-9.23;-1.568;-4.761;1.87;3.205;0.237;-0.649;-0.035;-12.4;5.1;27.8;55.89;9449;2018-04-16 23:29:27:238
-8.576;-10.101;-0.013;-2.919;-9.23;-1.568;-4.761;1.87;3.205;-0.062;-0.588;0.094;-12.4;5.1;27.8;55.89;9460;2018-04-16 23:29:27:249
