sep=;
acc_x;acc_y;acc_z;grav_x;grav_y;grav_z;lin_acc_x;lin_acc_y;lin_acc_z;gyro_x;gyro_y;gyro_z;mag_x;mag_y;mag_z;sound_lvl;time_ms;date_time
3.096;-0.789;5.194;1.883;3.858;8.817;1.375;-4.817;-3.222;1.815;-3.89;0.52;15.7;-27.1;13.2;51.1;23;2018-04-16 23:25:58:796
4.28;-2.46;6.098;2.306;3.99;8.656;0.952;-4.949;-3.061;1.791;-4.701;0.821;15.8;-27.1;13.2;51.1;33;2018-04-16 23:25:58:806
4.28;-2.46;6.098;2.306;3.99;8.656;0.952;-4.949;-3.061;1.791;-4.701;0.821;15.8;-27.1;13.2;51.1;43;2018-04-16 23:25:58:816
1.105;-3.044;7.591;3.243;4.256;8.218;-2.836;-7.488;-1.494;1.955;-5.024;1.08;16.0;-27.1;13.3;51.1;52;2018-04-16 23:25:58:825
0.138;-3.928;5.313;3.745;4.372;7.939;-3.338;-7.604;-1.215;2.285;-4.882;2.067;16.1;-27.1;13.2;51.1;62;2018-04-16 23:25:58:835
0.138;-3.928;5.313;3.745;4.372;7.939;-3.338;-7.604;-1.215;2.285;-4.882;2.067;16.1;-27.1;13.2;51.1;73;2018-04-16 23:25:58:846
0.138;-3.928;5.313;3.745;4.372;7.939;-3.338;-7.604;-1.215;2.285;-4.882;2.067;16.1;-27.1;13.2;51.1;84;2018-04-16 23:25:58:857
2.106;-4.525;3.063;4.793;4.502;7.275;-2.687;-9.027;-4.211;2.743;-5.076;3.409;16.3;-27.0;13.5;51.1;93;2018-04-16 23:25:58:866
4.266;-3.615;1.342;5.909;4.489;6.411;-1.643;-8.104;-5.069;2.975;-5.394;3.845;16.5;-26.9;13.7;51.1;102;2018-04-16 23:25:58:875
4.266;-3.615;1.342;5.909;4.489;6.411;-1.643;-8.104;-5.069;3.047;-6.308;4.496;16.5;-26.9;13.7;51.1;112;2018-04-16 23:25:58:885
6.521;-4.023;3.061;7.065;4.23;5.326;-0.545;-8.253;-2.265;3.047;-6.308;4.496;16.6;-26.7;14.2;51.1;122;2018-04-16 23:25:58:895
7.366;-5.036;4.167;7.609;3.944;4.766;-0.243;-8.98;-0.599;2.572;-6.167;5.26;16.6;-26.6;14.3;51.1;132;2018-04-16 23:25:58:905
7.366;-5.036;4.167;7.609;3.944;4.766;-0.243;-8.98;-0.599;2.572;-6.167;5.26;16.6;-26.6;14.3;51.1;142;2018-04-16 23:25:58:915
7.649;-6.314;5.899;8.503;3.228;3.668;-0.853;-9.541;2.231;2.408;-5.561;5.861;16.5;-25.1;16.8;51.1;152;2018-04-16 23:25:58:925
8.454;-6.286;6.88;8.871;2.761;3.14;-0.417;-9.047;3.74;2.387;-5.231;6.267;16.3;-24.6;17.4;51.1;163;2018-04-16 23:25:58:936
8.454;-6.286;6.88;8.871;2.761;3.14;-0.417;-9.047;3.74;2.387;-5.231;6.267;16.3;-24.6;17.4;51.1;173;2018-04-16 23:25:58:946
13.144;-4.979;8.748;9.419;1.629;2.192;3.725;-6.608;6.556;2.402;-4.375;7.01;16.2;-23.4;20.7;51.1;182;2018-04-16 23:25:58:955
17.753;-2.915;9.491;9.419;1.629;2.192;3.725;-6.608;6.556;2.652;-3.668;7.051;16.2;-23.4;20.7;51.1;193;2018-04-16 23:25:58:966
17.753;-2.915;9.491;9.696;0.352;1.424;9.925;-2.192;8.148;2.652;-3.668;7.051;15.0;-22.8;21.5;51.1;203;2018-04-16 23:25:58:976
22.406;-0.085;8.539;9.696;0.352;1.424;9.925;-2.192;8.148;3.043;-2.899;6.585;15.0;-22.8;21.5;51.1;212;2018-04-16 23:25:58:985
22.406;-0.085;8.539;9.731;-0.769;0.939;14.48;2.807;5.413;3.043;-2.899;6.585;13.3;-20.1;23.7;51.1;222;2018-04-16 23:25:58:995
24.524;4.335;4.355;9.697;-1.228;0.79;14.826;5.563;3.565;3.308;-1.885;5.051;12.9;-19.7;24.9;51.1;232;2018-04-16 23:25:59:005
24.524;4.335;4.355;9.697;-1.228;0.79;14.826;5.563;3.565;3.308;-1.885;5.051;12.9;-19.7;24.9;51.1;242;2018-04-16 23:25:59:015
22.895;6.638;1.433;9.605;-1.87;0.649;12.767;9.011;-0.027;3.109;-1.216;3.53;12.2;-17.2;24.6;51.1;253;2018-04-16 23:25:59:026
21.397;8.049;-0.895;9.563;-2.078;0.638;11.834;10.128;-1.533;2.553;-0.638;2.252;11.8;-16.2;27.9;51.1;262;2018-04-16 23:25:59:035
21.397;8.049;-0.895;9.563;-2.078;0.638;11.834;10.128;-1.533;1.763;-0.045;1.109;11.8;-16.2;27.9;51.1;272;2018-04-16 23:25:59:045
20.785;8.934;-3.871;9.517;-2.258;0.703;11.268;11.192;-4.574;1.466;0.133;0.705;11.5;-14.8;28.1;51.1;282;2018-04-16 23:25:59:055
20.785;8.934;-3.871;9.517;-2.258;0.703;11.268;11.192;-4.574;1.466;0.133;0.705;11.5;-14.8;28.1;51.1;292;2018-04-16 23:25:59:065
20.104;8.498;-6.276;9.531;-2.151;0.838;10.471;9.668;-13.511;0.588;0.593;-0.514;11.2;-13.3;29.0;50.16;303;2018-04-16 23:25:59:076
15.502;5.806;-20.026;9.553;-2.006;0.936;5.949;7.812;-20.962;-1.404;1.341;-1.653;10.8;-13.2;28.0;50.16;313;2018-04-16 23:25:59:086
15.502;5.806;-20.026;9.553;-2.006;0.936;5.949;7.812;-20.962;-1.404;1.341;-1.653;10.8;-13.2;28.0;50.16;322;2018-04-16 23:25:59:095
11.242;2.579;-3.558;9.571;-1.753;1.224;1.671;4.332;-4.782;-3.872;2.253;-1.576;10.8;-14.0;29.6;50.16;332;2018-04-16 23:25:59:105
11.242;2.579;-3.558;9.571;-1.753;1.224;1.671;4.332;-4.782;-3.872;2.253;-1.576;10.8;-14.0;29.6;50.16;342;2018-04-16 23:25:59:115
9.501;-1.122;-1.34;9.596;-1.543;1.306;-0.095;0.421;-2.645;-2.867;0.673;-1.448;10.1;-16.7;27.5;50.16;352;2018-04-16 23:25:59:125
8.109;-0.836;-1.372;9.609;-1.451;1.316;-1.5;0.616;-2.688;-2.425;0.489;-1.279;10.1;-17.2;27.6;50.16;363;2018-04-16 23:25:59:136
8.109;-0.836;-1.372;9.609;-1.451;1.316;-1.5;0.616;-2.688;-2.425;0.489;-1.279;10.1;-17.2;27.6;50.16;372;2018-04-16 23:25:59:145
7.937;1.219;-0.299;9.637;-1.302;1.264;-1.7;2.521;-1.563;-1.58;-0.279;-0.899;10.1;-18.5;26.1;50.16;382;2018-04-16 23:25:59:155
7.937;1.219;-0.299;9.637;-1.302;1.264;-1.7;2.521;-1.563;-1.58;-0.279;-0.899;10.1;-18.5;26.1;50.16;392;2018-04-16 23:25:59:165
9.941;0.966;-0.668;9.684;-1.206;0.967;0.257;2.173;-1.635;-0.159;-1.901;-0.37;10.3;-18.7;24.3;50.16;402;2018-04-16 23:25:59:175
9.784;0.019;-2.221;9.711;-1.17;0.703;0.311;1.638;-2.213;0.536;-2.724;-0.255;11.0;-18.6;26.3;50.16;412;2018-04-16 23:25:59:185
9.784;0.019;-2.221;9.711;-1.17;0.703;0.311;1.638;-2.213;0.536;-2.724;-0.255;11.0;-18.6;26.3;50.16;423;2018-04-16 23:25:59:196
10.248;3.904;1.8;9.736;-1.163;0.174;0.513;5.067;1.627;0.55;-2.828;0.175;11.9;-17.6;27.8;50.16;433;2018-04-16 23:25:59:206
10.248;3.904;1.8;9.736;-1.163;0.174;0.513;5.067;1.627;0.55;-2.828;0.175;11.9;-17.6;27.8;50.16;442;2018-04-16 23:25:59:215
8.832;-1.486;5.097;9.728;-1.19;-0.344;-0.896;-0.296;5.441;1.899;-2.869;0.068;11.9;-17.7;27.5;50.16;452;2018-04-16 23:25:59:225
5.122;-3.658;3.979;9.728;-1.19;-0.344;-0.896;-0.296;5.441;2.325;-2.678;0.182;11.9;-17.7;27.5;50.16;462;2018-04-16 23:25:59:235
5.122;-3.658;3.979;9.692;-1.28;-0.768;-6.078;-2.183;3.77;2.48;-2.298;0.457;12.4;-16.9;27.9;50.16;473;2018-04-16 23:25:59:246
2.324;-2.977;1.921;9.665;-1.38;-0.923;-6.778;-1.921;3.474;2.542;-1.944;0.804;12.3;-16.3;27.3;50.16;482;2018-04-16 23:25:59:255
2.324;-2.977;1.921;9.665;-1.38;-0.923;-6.778;-1.921;3.474;2.501;-1.57;1.372;12.3;-16.3;27.3;50.16;493;2018-04-16 23:25:59:266
3.84;-3.051;1.065;9.588;-1.703;-1.154;-5.748;-1.349;2.219;2.501;-1.57;1.372;12.2;-15.4;27.9;50.16;503;2018-04-16 23:25:59:276
4.404;-2.989;0.619;9.542;-1.892;-1.24;-5.138;-1.097;1.859;2.536;-1.423;1.756;12.0;-15.3;28.2;50.16;512;2018-04-16 23:25:59:285
4.404;-2.989;0.619;9.542;-1.892;-1.24;-5.138;-1.097;1.859;2.536;-1.423;1.756;12.0;-15.3;28.2;50.16;522;2018-04-16 23:25:59:295
6.651;-3.924;0.14;9.428;-2.333;-1.358;-2.777;-1.591;1.498;2.087;-0.944;2.065;13.1;-14.2;29.0;50.16;532;2018-04-16 23:25:59:305
6.651;-3.924;0.14;9.428;-2.333;-1.358;-2.777;-1.591;1.498;2.087;-0.944;2.065;13.1;-14.2;29.0;50.16;542;2018-04-16 23:25:59:315
11.211;-6.236;3.084;9.296;-2.819;-1.344;1.915;-3.417;4.427;1.492;-0.172;2.353;13.1;-13.9;29.1;50.16;553;2018-04-16 23:25:59:326
11.211;-6.236;3.084;9.296;-2.819;-1.344;1.915;-3.417;4.427;1.492;-0.172;2.353;13.1;-13.9;29.1;50.16;562;2018-04-16 23:25:59:335
19.562;-8.626;5.666;9.137;-3.31;-1.313;10.424;-5.317;6.978;1.398;-0.329;2.432;13.7;-13.0;29.7;50.16;573;2018-04-16 23:25:59:346
19.008;-11.078;1.361;9.064;-3.53;-1.244;9.943;-7.548;2.605;1.5;0.182;2.194;13.9;-12.7;29.8;50.16;582;2018-04-16 23:25:59:355
19.008;-11.078;1.361;9.064;-3.53;-1.244;9.943;-7.548;2.605;0.511;0.953;2.186;13.9;-12.7;29.8;50.16;592;2018-04-16 23:25:59:365
11.596;-6.555;-6.361;8.921;-3.935;-1.052;2.676;-2.621;-5.309;0.511;0.953;2.186;13.9;-12.0;29.7;50.16;602;2018-04-16 23:25:59:375
8.094;-3.685;-4.045;8.921;-3.935;-1.052;2.676;-2.621;-5.309;-1.174;0.712;2.359;13.9;-12.0;29.7;50.16;612;2018-04-16 23:25:59:385
8.094;-3.685;-4.045;8.724;-4.343;-1.098;-1.498;1.572;-3.052;-1.712;0.177;2.528;13.9;-11.9;30.5;48.61;623;2018-04-16 23:25:59:396
6.115;-2.814;-4.507;8.607;-4.537;-1.23;-2.492;1.722;-3.278;-1.878;-0.632;2.601;12.6;-12.2;29.1;48.61;632;2018-04-16 23:25:59:405
6.115;-2.814;-4.507;8.607;-4.537;-1.23;-2.492;1.722;-3.278;-1.878;-0.632;2.601;12.6;-12.2;29.1;48.61;642;2018-04-16 23:25:59:415
6.115;-2.814;-4.507;8.607;-4.537;-1.23;-2.492;1.722;-3.278;-1.878;-0.632;2.601;12.6;-12.2;29.1;48.61;652;2018-04-16 23:25:59:425
6.115;-2.814;-4.507;8.607;-4.537;-1.23;-2.492;1.722;-3.278;-1.878;-0.632;2.601;12.6;-12.2;29.1;48.61;662;2018-04-16 23:25:59:435
6.115;-2.814;-4.507;8.607;-4.537;-1.23;-2.492;1.722;-3.278;-1.878;-0.632;2.601;12.6;-12.2;29.1;48.61;672;2018-04-16 23:25:59:445
6.115;-2.814;-4.507;8.607;-4.537;-1.23;-2.492;1.722;-3.278;-1.878;-0.632;2.601;12.6;-12.2;29.1;48.61;683;2018-04-16 23:25:59:456
6.115;-2.814;-4.507;8.607;-4.537;-1.23;-2.492;1.722;-3.278;-1.878;-0.632;2.601;12.6;-12.2;29.1;48.61;692;2018-04-16 23:25:59:465
6.115;-2.814;-4.507;8.607;-4.537;-1.23;-2.492;1.722;-3.278;-1.878;-0.632;2.601;12.6;-12.2;29.1;48.61;702;2018-04-16 23:25:59:475
6.115;-2.814;-4.507;8.607;-4.537;-1.23;-2.492;1.722;-3.278;-1.878;-0.632;2.601;12.6;-12.2;29.1;48.61;712;2018-04-16 23:25:59:485
6.115;-2.814;-4.507;8.607;-4.537;-1.23;-2.492;1.722;-3.278;-1.878;-0.632;2.601;12.6;-12.2;29.1;48.61;723;2018-04-16 23:25:59:496
6.115;-2.814;-4.507;8.607;-4.537;-1.23;-2.492;1.722;-3.278;-1.878;-0.632;2.601;12.6;-12.2;29.1;48.61;732;2018-04-16 23:25:59:505
6.115;-2.814;-4.507;8.607;-4.537;-1.23;-2.492;1.722;-3.278;-1.878;-0.632;2.601;12.6;-12.2;29.1;48.61;742;2018-04-16 23:25:59:515
6.115;-2.814;-4.507;8.607;-4.537;-1.23;-2.492;1.722;-3.278;-1.878;-0.632;2.601;12.6;-12.2;29.1;48.61;752;2018-04-16 23:25:59:525
6.115;-2.814;-4.507;8.607;-4.537;-1.23;-2.492;1.722;-3.278;-1.878;-0.632;2.601;12.6;-12.2;29.1;48.61;762;2018-04-16 23:25:59:535
6.115;-2.814;-4.507;8.607;-4.537;-1.23;-2.492;1.722;-3.278;-1.878;-0.632;2.601;12.6;-12.2;29.1;48.61;773;2018-04-16 23:25:59:546
6.115;-2.814;-4.507;8.607;-4.537;-1.23;-2.492;1.722;-3.278;-1.878;-0.632;2.601;12.6;-12.2;29.1;48.61;783;2018-04-16 23:25:59:556
6.115;-2.814;-4.507;8.607;-4.537;-1.23;-2.492;1.722;-3.278;-1.878;-0.632;2.601;12.6;-12.2;29.1;48.61;792;2018-04-16 23:25:59:565
6.115;-2.814;-4.507;8.607;-4.537;-1.23;-2.492;1.722;-3.278;-1.878;-0.632;2.601;12.6;-12.2;29.1;48.61;802;2018-04-16 23:25:59:575
6.115;-2.814;-4.507;8.607;-4.537;-1.23;-2.492;1.722;-3.278;-1.878;-0.632;2.601;12.6;-12.2;29.1;48.61;812;2018-04-16 23:25:59:585
6.115;-2.814;-4.507;8.607;-4.537;-1.23;-2.492;1.722;-3.278;-1.878;-0.632;2.601;12.6;-12.2;29.1;48.61;823;2018-04-16 23:25:59:596
4.023;-5.447;0.062;8.305;-4.937;-1.678;-4.282;-0.51;1.74;-0.982;-2.203;2.571;13.2;-12.4;29.4;48.61;833;2018-04-16 23:25:59:606
4.023;-5.447;0.062;8.305;-4.937;-1.678;-4.282;-0.51;1.74;-0.982;-2.203;2.571;13.2;-12.4;29.4;48.61;843;2018-04-16 23:25:59:616
-12.771;-35.636;0.114;-2.751;-9.402;-0.456;-10.019;-26.235;0.569;-1.495;-4.172;8.359;10.2;1.8;34.4;48.61;853;2018-04-16 23:25:59:626
-12.771;-35.636;0.114;-2.751;-9.402;-0.456;-10.019;-26.235;0.569;-1.464;-5.031;11.225;10.2;1.8;34.4;48.61;862;2018-04-16 23:25:59:635
4.87;-22.768;-0.751;-4.932;-8.472;-0.278;9.801;-14.296;-0.473;-1.57;-6.004;10.721;11.6;2.3;33.5;48.61;872;2018-04-16 23:25:59:645
4.87;-22.768;-0.751;-4.932;-8.472;-0.278;9.801;-14.296;-0.473;-1.57;-6.004;10.721;11.6;2.3;33.5;48.61;882;2018-04-16 23:25:59:655
-10.698;-19.125;14.297;-5.398;-8.184;-0.234;-5.301;-10.941;14.531;-3.911;-4.608;-1.633;14.7;2.0;33.3;48.61;893;2018-04-16 23:25:59:666
-10.698;-19.125;14.297;-5.398;-8.184;-0.234;-5.301;-10.941;14.531;-3.673;-1.739;-3.771;14.7;2.0;33.3;48.61;903;2018-04-16 23:25:59:676
-11.876;-11.564;5.802;-4.884;-8.475;-0.704;-6.993;-3.089;6.506;-2.722;0.56;-2.426;16.0;1.2;34.9;48.61;912;2018-04-16 23:25:59:685
-5.231;-1.288;-5.552;-4.884;-8.475;-0.704;-6.993;-3.089;6.506;-1.361;-0.05;-1.043;16.0;1.2;34.9;48.61;922;2018-04-16 23:25:59:695
-5.231;-1.288;-5.552;-4.706;-8.555;-0.913;-0.31;7.654;-2.127;0.056;-3.295;-0.92;15.6;-0.4;35.2;66.74;932;2018-04-16 23:25:59:705
-5.54;-2.636;1.845;-4.706;-8.555;-0.913;-0.31;7.654;-2.127;0.056;-3.295;-0.92;15.6;-0.4;35.2;66.74;943;2018-04-16 23:25:59:716
-5.057;-3.294;4.14;-4.636;-8.634;-0.361;-0.421;5.512;4.298;1.201;-4.445;-0.613;16.9;0.0;32.6;66.74;952;2018-04-16 23:25:59:725
-5.057;-3.294;4.14;-4.636;-8.634;-0.361;-0.421;5.512;4.298;1.538;-3.167;-0.545;16.9;0.0;32.6;66.74;962;2018-04-16 23:25:59:735
-7.444;-5.68;3.638;-4.559;-8.681;0.149;-2.885;3.001;3.489;1.537;-2.004;-0.594;18.6;0.6;32.9;66.74;972;2018-04-16 23:25:59:745
-7.444;-5.68;3.638;-4.559;-8.681;0.149;-2.885;3.001;3.489;1.456;-1.024;-0.525;18.6;0.6;32.9;66.74;983;2018-04-16 23:25:59:756
-9.701;-8.52;-3.638;-4.48;-8.711;0.461;-5.221;0.191;-4.099;1.247;-0.683;-0.326;19.7;1.5;32.7;66.74;992;2018-04-16 23:25:59:765
-9.701;-8.52;-3.638;-4.48;-8.711;0.461;-5.221;0.191;-4.099;0.761;-0.604;-0.078;19.7;1.5;32.7;66.74;1002;2018-04-16 23:25:59:775
-7.372;-8.475;-2.447;-4.482;-8.704;0.572;-2.89;0.228;-3.019;0.126;-0.159;0.144;19.9;2.3;32.7;66.74;1012;2018-04-16 23:25:59:785
-5.134;-8.396;0.899;-4.748;-8.575;-0.297;-0.386;0.179;1.196;-0.661;1.868;0.423;19.3;1.5;34.1;66.74;1068;2018-04-16 23:25:59:841
-5.134;-8.396;0.899;-4.748;-8.575;-0.297;-0.386;0.179;1.196;-0.661;1.868;0.423;19.3;1.5;34.1;66.74;1068;2018-04-16 23:25:59:841
-5.134;-8.396;0.899;-4.748;-8.575;-0.297;-0.386;0.179;1.196;-0.661;1.868;0.423;19.3;1.5;34.1;66.74;1068;2018-04-16 23:25:59:841
-5.134;-8.396;0.899;-4.748;-8.575;-0.297;-0.386;0.179;1.196;-0.661;1.868;0.423;19.3;1.5;34.1;66.74;1069;2018-04-16 23:25:59:842
-5.134;-8.396;0.899;-4.748;-8.575;-0.297;-0.386;0.179;1.196;-0.661;1.868;0.423;19.3;1.5;34.1;66.74;1069;2018-04-16 23:25:59:842
-5.134;-8.396;0.899;-4.748;-8.575;-0.297;-0.386;0.179;1.196;-0.661;1.868;0.423;19.3;1.5;34.1;66.74;1072;2018-04-16 23:25:59:845
-5.057;-8.587;1.699;-4.748;-8.575;-0.297;-0.386;0.179;1.196;-0.371;1.708;0.343;19.3;1.5;34.1;66.74;1083;2018-04-16 23:25:59:856
-5.057;-8.587;1.699;-4.799;-8.537;-0.514;-0.202;-0.03;2.28;-0.214;1.73;0.301;18.3;0.7;34.8;66.74;1092;2018-04-16 23:25:59:865
-4.928;-8.608;1.641;-4.799;-8.537;-0.514;-0.202;-0.03;2.28;-0.214;1.73;0.301;18.3;0.7;34.8;66.74;1102;2018-04-16 23:25:59:875
-4.718;-8.613;1.228;-4.834;-8.505;-0.684;0.085;-0.066;2.035;-0.028;1.759;0.291;18.3;1.3;35.3;66.74;1113;2018-04-16 23:25:59:886
-4.718;-8.613;1.228;-4.834;-8.505;-0.684;0.085;-0.066;2.035;0.098;1.665;0.279;18.3;1.3;35.3;66.74;1122;2018-04-16 23:25:59:895
-4.569;-8.669;0.66;-4.86;-8.478;-0.815;0.291;-0.191;1.475;0.156;1.502;0.27;18.2;1.3;34.1;66.74;1133;2018-04-16 23:25:59:906
-4.495;-8.734;0.567;-4.86;-8.478;-0.815;0.291;-0.191;1.475;0.156;1.502;0.27;18.2;1.3;34.1;66.74;1142;2018-04-16 23:25:59:915
-4.495;-8.734;0.567;-4.884;-8.457;-0.892;0.42;-0.28;1.463;0.243;1.183;0.243;18.2;1.4;34.6;66.74;1152;2018-04-16 23:25:59:925
-4.381;-8.762;0.583;-4.884;-8.457;-0.892;0.42;-0.28;1.463;0.303;0.963;0.215;18.2;1.4;34.6;66.74;1162;2018-04-16 23:25:59:935
-4.351;-8.784;0.552;-4.904;-8.444;-0.907;0.561;-0.32;1.481;0.356;0.761;0.187;19.1;1.4;34.3;66.74;1172;2018-04-16 23:25:59:945
-4.351;-8.784;0.552;-4.904;-8.444;-0.907;0.561;-0.32;1.481;0.396;0.588;0.158;19.1;1.4;34.3;66.74;1183;2018-04-16 23:25:59:956
-4.409;-8.853;0.537;-4.921;-8.437;-0.877;0.512;-0.416;1.414;0.414;0.45;0.133;19.2;1.2;34.4;66.74;1193;2018-04-16 23:25:59:966
-4.409;-8.853;0.537;-4.921;-8.437;-0.877;0.512;-0.416;1.414;0.409;0.343;0.114;19.2;1.2;34.4;66.74;1203;2018-04-16 23:25:59:976
-4.519;-8.827;0.49;-4.935;-8.434;-0.83;0.416;-0.394;1.32;0.371;0.274;0.093;19.1;1.1;34.6;66.74;1212;2018-04-16 23:25:59:985
-4.519;-8.827;0.49;-4.935;-8.434;-0.83;0.416;-0.394;1.32;0.312;0.236;0.077;19.1;1.1;34.6;66.74;1222;2018-04-16 23:25:59:995
-4.538;-8.595;0.432;-4.948;-8.431;-0.774;0.41;-0.164;1.206;0.232;0.215;0.056;19.1;1.2;34.7;66.74;1232;2018-04-16 23:26:00:005
-4.721;-8.436;0.532;-4.948;-8.431;-0.774;0.41;-0.164;1.206;0.111;0.2;0.033;19.1;1.2;34.7;66.74;1242;2018-04-16 23:26:00:015
-4.721;-8.436;0.532;-4.992;-8.416;-0.654;0.208;0.035;1.254;0.059;0.189;0.031;18.9;1.3;34.9;62.06;1252;2018-04-16 23:26:00:025
-4.893;-8.32;0.663;-4.992;-8.416;-0.654;0.208;0.035;1.254;0.029;0.167;0.028;18.9;1.3;34.9;62.06;1262;2018-04-16 23:26:00:035
-5.028;-8.236;0.711;-5.067;-8.382;-0.487;0.067;0.107;1.186;0.024;0.138;0.031;18.6;1.3;35.0;62.06;1272;2018-04-16 23:26:00:045
-5.028;-8.236;0.711;-5.067;-8.382;-0.487;0.067;0.107;1.186;0.045;0.101;0.042;18.6;1.3;35.0;62.06;1282;2018-04-16 23:26:00:055
-5.016;-8.152;0.57;-5.134;-8.349;-0.325;0.118;0.197;0.895;0.077;0.054;0.051;18.2;1.3;35.2;62.06;1292;2018-04-16 23:26:00:065
-4.984;-8.249;0.141;-5.134;-8.349;-0.325;0.118;0.197;0.895;0.122;-0.026;0.062;18.2;1.3;35.2;62.06;1303;2018-04-16 23:26:00:076
-4.984;-8.249;0.141;-5.148;-8.344;-0.227;0.201;0.007;0.167;0.186;-0.198;0.078;17.8;1.1;35.4;62.06;1312;2018-04-16 23:26:00:085
-4.831;-8.449;-0.148;-5.148;-8.344;-0.227;0.201;0.007;0.167;0.281;-0.467;0.099;17.8;1.1;35.4;62.06;1323;2018-04-16 23:26:00:096
-4.629;-8.6;0.126;-5.149;-8.345;-0.104;0.47;-0.201;0.13;0.368;-0.711;0.101;17.3;1.1;35.5;62.06;1333;2018-04-16 23:26:00:106
-4.629;-8.6;0.126;-5.149;-8.345;-0.104;0.47;-0.201;0.13;0.408;-0.832;0.088;17.3;1.1;35.5;62.06;1343;2018-04-16 23:26:00:116
-4.543;-8.756;0.257;-5.159;-8.34;0.053;0.616;-0.416;0.204;0.4;-0.833;0.079;16.9;1.0;35.7;62.06;1353;2018-04-16 23:26:00:126
-4.426;-8.841;0.104;-5.159;-8.34;0.053;0.616;-0.416;0.204;0.358;-0.8;0.076;16.9;1.0;35.7;62.06;1363;2018-04-16 23:26:00:136
-4.426;-8.841;0.104;-5.162;-8.336;0.192;0.811;-0.486;-0.198;0.305;-0.786;0.075;16.6;1.0;35.9;62.06;1373;2018-04-16 23:26:00:146
-4.36;-8.886;-0.418;-5.162;-8.336;0.192;0.811;-0.486;-0.198;0.242;-0.803;0.07;16.6;1.0;35.9;62.06;1383;2018-04-16 23:26:00:156
-4.339;-8.8;-0.682;-5.16;-8.333;0.306;0.825;-0.496;-0.971;0.156;-0.866;0.066;16.5;1.2;35.9;62.06;1392;2018-04-16 23:26:00:165
-4.339;-8.8;-0.682;-5.16;-8.333;0.306;0.825;-0.496;-0.971;0.042;-0.949;0.053;16.5;1.2;35.9;62.06;1403;2018-04-16 23:26:00:176
-4.573;-8.589;-0.236;-5.154;-8.334;0.396;0.581;-0.255;-0.632;-0.082;-0.971;0.035;16.4;1.3;36.0;62.06;1413;2018-04-16 23:26:00:186
-4.573;-8.589;-0.236;-5.154;-8.334;0.396;0.581;-0.255;-0.632;-0.194;-0.905;0.028;16.4;1.3;36.0;62.06;1423;2018-04-16 23:26:00:196
-4.937;-8.516;0.174;-5.148;-8.335;0.441;0.211;-0.181;-0.268;-0.279;-0.786;0.031;16.3;1.4;36.1;62.06;1433;2018-04-16 23:26:00:206
-4.97;-8.43;0.532;-5.148;-8.335;0.441;0.211;-0.181;-0.268;-0.327;-0.649;0.032;16.3;1.4;36.1;62.06;1443;2018-04-16 23:26:00:216
-4.97;-8.43;0.532;-5.146;-8.336;0.446;0.163;-0.057;0.305;-0.343;-0.496;0.027;16.4;1.4;36.1;62.06;1452;2018-04-16 23:26:00:225
-4.99;-8.322;1.032;-5.146;-8.336;0.446;0.163;-0.057;0.305;-0.331;-0.313;0.018;16.4;1.4;36.1;62.06;1462;2018-04-16 23:26:00:235
-5.0;-8.253;1.132;-5.146;-8.337;0.422;0.158;0.066;0.736;-0.29;-0.097;0.006;16.5;1.5;36.1;62.06;1473;2018-04-16 23:26:00:246
-5.0;-8.253;1.132;-5.146;-8.337;0.422;0.158;0.066;0.736;-0.238;0.116;-0.011;16.5;1.5;36.1;62.06;1483;2018-04-16 23:26:00:256
-5.104;-8.31;0.739;-5.145;-8.34;0.372;0.041;0.03;0.367;-0.184;0.269;-0.026;16.7;1.6;36.1;62.06;1493;2018-04-16 23:26:00:266
-5.104;-8.31;0.739;-5.145;-8.34;0.372;0.041;0.03;0.367;-0.154;0.337;-0.027;16.7;1.6;36.1;62.06;1503;2018-04-16 23:26:00:276
-5.157;-8.522;0.232;-5.143;-8.344;0.312;-0.014;-0.178;-0.08;-0.165;0.305;-0.018;16.9;1.6;36.1;62.06;1513;2018-04-16 23:26:00:286
-5.181;-8.556;0.217;-5.143;-8.344;0.312;-0.014;-0.178;-0.08;-0.165;0.305;-0.018;16.9;1.6;36.1;62.06;1523;2018-04-16 23:26:00:296
-5.181;-8.556;0.217;-5.141;-8.347;0.247;-0.085;-0.183;0.009;-0.276;0.214;-0.015;17.0;1.5;36.1;62.06;1533;2018-04-16 23:26:00:306
-5.258;-8.386;0.377;-5.141;-8.347;0.247;-0.085;-0.183;0.009;-0.325;0.183;-0.013;17.0;1.5;36.1;62.06;1543;2018-04-16 23:26:00:316
-5.296;-8.116;0.678;-5.142;-8.349;0.175;-0.128;0.144;0.381;-0.356;0.159;-0.009;17.2;1.5;36.0;62.06;1553;2018-04-16 23:26:00:326
-5.296;-8.116;0.678;-5.142;-8.349;0.175;-0.128;0.144;0.381;-0.357;0.165;-0.015;17.2;1.5;36.0;62.06;1562;2018-04-16 23:26:00:335
-5.497;-8.023;0.966;-5.144;-8.349;0.105;-0.353;0.326;0.861;-0.327;0.202;-0.02;17.5;1.5;36.2;62.06;1572;2018-04-16 23:26:00:345
-5.57;-7.986;0.952;-5.144;-8.349;0.105;-0.353;0.326;0.861;-0.275;0.257;-0.017;17.5;1.5;36.2;62.06;1582;2018-04-16 23:26:00:355
-5.57;-7.986;0.952;-5.148;-8.347;0.044;-0.378;0.385;0.833;-0.211;0.291;-0.011;17.6;1.5;36.2;49.65;1592;2018-04-16 23:26:00:365
-5.488;-7.943;0.749;-5.148;-8.347;0.044;-0.378;0.385;0.833;-0.131;0.28;-0.009;17.6;1.5;36.2;49.65;1602;2018-04-16 23:26:00:375
-5.407;-8.031;0.679;-5.152;-8.344;0.009;-0.292;0.361;0.678;-0.046;0.23;-0.001;17.8;1.5;36.3;49.65;1612;2018-04-16 23:26:00:385
-5.407;-8.031;0.679;-5.152;-8.344;0.009;-0.292;0.361;0.678;0.033;0.175;0.007;17.8;1.5;36.3;49.65;1623;2018-04-16 23:26:00:396
-5.277;-8.18;0.684;-5.164;-8.337;0.024;-0.113;0.157;0.66;0.092;0.143;0.011;18.0;1.4;36.2;49.65;1632;2018-04-16 23:26:00:405
-5.148;-8.309;0.639;-5.164;-8.337;0.024;-0.113;0.157;0.66;0.123;0.142;0.013;18.0;1.4;36.2;49.65;1643;2018-04-16 23:26:00:416
-5.148;-8.309;0.639;-5.17;-8.333;0.061;0.073;0.006;0.532;0.134;0.154;0.011;18.1;1.4;36.3;49.65;1653;2018-04-16 23:26:00:426
-5.019;-8.345;0.48;-5.17;-8.333;0.061;0.073;0.006;0.532;0.133;0.16;0.006;18.1;1.4;36.3;49.65;1663;2018-04-16 23:26:00:436
-4.969;-8.392;0.279;-5.166;-8.335;0.087;0.197;-0.04;0.242;0.122;0.138;0.006;18.2;1.3;36.2;49.65;1673;2018-04-16 23:26:00:446
-4.969;-8.392;0.279;-5.166;-8.335;0.087;0.197;-0.04;0.242;0.114;0.028;-0.004;18.2;1.3;36.2;49.65;1683;2018-04-16 23:26:00:456
-4.973;-8.437;0.146;-5.156;-8.341;0.109;0.183;-0.096;0.037;0.103;-0.087;-0.01;18.3;1.1;36.1;49.65;1692;2018-04-16 23:26:00:465
-4.973;-8.437;0.146;-5.156;-8.341;0.109;0.183;-0.096;0.037;0.103;-0.087;-0.01;18.3;1.1;36.1;49.65;1703;2018-04-16 23:26:00:476
-5.116;-8.45;0.259;-5.148;-8.345;0.151;0.032;-0.105;0.108;0.097;-0.244;-0.015;18.3;1.0;36.1;49.65;1713;2018-04-16 23:26:00:486
-5.116;-8.45;0.259;-5.148;-8.345;0.151;0.032;-0.105;0.108;0.092;-0.321;-0.017;18.3;1.0;36.1;49.65;1723;2018-04-16 23:26:00:496
-5.228;-8.413;0.298;-5.145;-8.346;0.205;-0.083;-0.067;0.093;0.088;-0.381;-0.015;18.3;0.9;36.0;49.65;1732;2018-04-16 23:26:00:505
-5.228;-8.413;0.298;-5.145;-8.346;0.205;-0.083;-0.067;0.093;0.087;-0.435;-0.013;18.3;0.9;36.0;49.65;1742;2018-04-16 23:26:00:515
-5.219;-8.288;0.277;-5.141;-8.347;0.266;-0.078;0.059;0.011;0.087;-0.468;-0.012;18.2;0.8;36.0;49.65;1752;2018-04-16 23:26:00:525
-5.219;-8.288;0.277;-5.141;-8.347;0.266;-0.078;0.059;0.011;0.082;-0.483;-0.01;18.2;0.8;36.0;49.65;1763;2018-04-16 23:26:00:536
-5.247;-8.291;0.281;-5.137;-8.347;0.327;-0.109;0.056;-0.046;0.07;-0.478;-0.007;18.2;0.7;36.0;49.65;1773;2018-04-16 23:26:00:546
-5.247;-8.291;0.281;-5.137;-8.347;0.327;-0.109;0.056;-0.046;0.05;-0.451;-0.009;18.2;0.7;36.0;49.65;1783;2018-04-16 23:26:00:556
-5.265;-8.279;0.279;-5.134;-8.347;0.375;-0.13;0.068;-0.096;0.022;-0.387;-0.006;18.2;0.6;35.9;49.65;1793;2018-04-16 23:26:00:566
-5.228;-8.228;0.298;-5.134;-8.347;0.375;-0.13;0.068;-0.096;0.017;-0.343;-0.002;18.2;0.6;35.9;49.65;1803;2018-04-16 23:26:00:576
-5.228;-8.228;0.298;-5.133;-8.346;0.411;-0.101;0.128;-0.088;0.031;-0.298;0.0;18.2;0.6;35.9;49.65;1813;2018-04-16 23:26:00:586
-5.188;-8.23;0.409;-5.133;-8.346;0.411;-0.101;0.128;-0.088;0.042;-0.235;0.002;18.2;0.6;35.9;49.65;1823;2018-04-16 23:26:00:596
-5.088;-8.225;0.52;-5.132;-8.345;0.437;-0.003;0.108;0.064;0.044;-0.139;0.005;18.3;0.6;35.8;49.65;1833;2018-04-16 23:26:00:606
-5.027;-8.218;0.585;-5.132;-8.345;0.437;-0.003;0.108;0.064;0.049;-0.001;0.0;18.3;0.6;35.8;49.65;1842;2018-04-16 23:26:00:615
-5.027;-8.218;0.585;-5.132;-8.345;0.442;0.158;0.146;0.155;0.038;0.155;-0.005;18.3;0.6;35.9;49.65;1852;2018-04-16 23:26:00:625
-4.911;-8.183;0.555;-5.132;-8.345;0.442;0.158;0.146;0.155;0.017;0.308;-0.011;18.3;0.6;35.9;49.65;1862;2018-04-16 23:26:00:635
-4.881;-8.229;0.47;-5.131;-8.347;0.409;0.247;0.143;0.089;0.0;0.424;-0.015;18.3;0.5;35.8;49.65;1872;2018-04-16 23:26:00:645
-4.881;-8.229;0.47;-5.131;-8.347;0.409;0.247;0.143;0.089;-0.016;0.49;-0.022;18.3;0.5;35.8;49.65;1882;2018-04-16 23:26:00:655
-4.922;-8.283;0.39;-5.129;-8.351;0.355;0.207;0.068;0.036;-0.028;0.508;-0.032;18.4;0.5;35.8;49.65;1892;2018-04-16 23:26:00:665
-4.922;-8.283;0.39;-5.129;-8.351;0.355;0.207;0.068;0.036;-0.035;0.483;-0.037;18.4;0.5;35.8;49.65;1903;2018-04-16 23:26:00:676
-5.047;-8.392;0.376;-5.125;-8.355;0.303;0.078;-0.036;0.073;-0.035;0.43;-0.039;18.4;0.5;35.8;47.62;1913;2018-04-16 23:26:00:686
-5.047;-8.392;0.376;-5.125;-8.355;0.303;0.078;-0.036;0.073;-0.037;0.351;-0.042;18.4;0.5;35.8;47.62;1923;2018-04-16 23:26:00:696
-5.268;-8.46;0.373;-5.121;-8.359;0.266;-0.148;-0.101;0.108;-0.035;0.265;-0.037;18.4;0.5;35.8;47.62;1933;2018-04-16 23:26:00:706
-5.268;-8.46;0.373;-5.121;-8.359;0.266;-0.148;-0.101;0.108;-0.033;0.182;-0.035;18.4;0.5;35.8;47.62;1943;2018-04-16 23:26:00:716
-5.358;-8.247;0.437;-5.118;-8.362;0.246;-0.24;0.115;0.191;-0.04;0.115;-0.026;18.4;0.5;35.7;47.62;1952;2018-04-16 23:26:00:725
-5.335;-8.07;0.468;-5.118;-8.362;0.246;-0.24;0.115;0.191;-0.049;0.072;-0.011;18.4;0.5;35.7;47.62;1962;2018-04-16 23:26:00:735
-5.335;-8.07;0.468;-5.124;-8.359;0.234;-0.189;0.349;0.256;-0.061;0.043;0.002;18.5;0.5;35.8;47.62;1972;2018-04-16 23:26:00:745
-5.307;-7.987;0.541;-5.124;-8.359;0.234;-0.189;0.349;0.256;-0.068;0.023;0.015;18.5;0.5;35.8;47.62;1982;2018-04-16 23:26:00:755
-5.308;-8.177;0.658;-5.141;-8.348;0.236;-0.161;0.238;0.392;-0.068;0.02;0.027;18.4;0.5;35.8;47.62;1992;2018-04-16 23:26:00:765
-5.308;-8.177;0.658;-5.141;-8.348;0.236;-0.161;0.238;0.392;-0.056;0.026;0.039;18.4;0.5;35.8;47.62;2002;2018-04-16 23:26:00:775
-5.246;-8.469;0.611;-5.153;-8.34;0.243;-0.093;-0.129;0.368;-0.032;0.028;0.049;18.5;0.5;35.8;47.62;2013;2018-04-16 23:26:00:786
-5.246;-8.469;0.611;-5.153;-8.34;0.243;-0.093;-0.129;0.368;0.007;0.005;0.051;18.5;0.5;35.8;47.62;2023;2018-04-16 23:26:00:796
-5.119;-8.554;0.451;-5.159;-8.336;0.255;0.04;-0.219;0.196;0.048;-0.029;0.048;18.5;0.5;35.9;47.62;2033;2018-04-16 23:26:00:806
-5.119;-8.554;0.451;-5.159;-8.336;0.255;0.04;-0.219;0.196;0.084;-0.082;0.044;18.5;0.5;35.9;47.62;2043;2018-04-16 23:26:00:816
-4.944;-8.211;0.321;-5.164;-8.332;0.284;0.22;0.121;0.037;0.111;-0.132;0.048;18.5;0.6;35.9;47.62;2052;2018-04-16 23:26:00:825
-4.944;-8.211;0.321;-5.164;-8.332;0.284;0.22;0.121;0.037;0.137;-0.175;0.045;18.5;0.6;35.9;47.62;2062;2018-04-16 23:26:00:835
-4.946;-8.124;0.385;-5.169;-8.327;0.326;0.223;0.204;0.06;0.14;-0.17;0.046;18.5;0.6;36.0;47.62;2072;2018-04-16 23:26:00:845
-4.946;-8.124;0.385;-5.169;-8.327;0.326;0.223;0.204;0.06;0.128;-0.122;0.049;18.5;0.6;36.0;47.62;2082;2018-04-16 23:26:00:855
-5.051;-8.321;0.439;-5.176;-8.322;0.357;0.125;0.001;0.082;0.119;-0.06;0.054;18.5;0.5;36.0;47.62;2092;2018-04-16 23:26:00:865
-5.051;-8.321;0.439;-5.176;-8.322;0.357;0.125;0.001;0.082;0.119;-0.018;0.056;18.5;0.5;36.0;47.62;2102;2018-04-16 23:26:00:875
-5.022;-8.496;0.221;-5.181;-8.318;0.378;0.159;-0.178;-0.157;0.133;-0.023;0.055;18.4;0.5;36.1;47.62;2113;2018-04-16 23:26:00:886
-5.022;-8.496;0.221;-5.181;-8.318;0.378;0.159;-0.178;-0.157;0.156;-0.051;0.05;18.4;0.5;36.1;47.62;2123;2018-04-16 23:26:00:896
-4.948;-8.559;0.296;-5.181;-8.317;0.409;0.233;-0.243;-0.114;0.186;-0.057;0.039;18.4;0.5;36.1;47.62;2132;2018-04-16 23:26:00:905
-4.948;-8.559;0.296;-5.181;-8.317;0.409;0.233;-0.243;-0.114;0.191;-0.035;0.029;18.4;0.5;36.1;47.62;2143;2018-04-16 23:26:00:916
-4.943;-8.519;0.274;-5.179;-8.316;0.44;0.237;-0.203;-0.166;0.188;0.007;0.024;18.3;0.5;36.0;47.62;2153;2018-04-16 23:26:00:926
-4.943;-8.519;0.274;-5.179;-8.316;0.44;0.237;-0.203;-0.166;0.177;0.053;0.021;18.3;0.5;36.0;47.62;2163;2018-04-16 23:26:00:936
-4.895;-8.466;0.259;-5.178;-8.316;0.457;0.283;-0.15;-0.198;0.154;0.105;0.016;18.3;0.5;36.1;47.62;2172;2018-04-16 23:26:00:945
-4.895;-8.466;0.259;-5.178;-8.316;0.457;0.283;-0.15;-0.198;0.131;0.154;0.01;18.3;0.5;36.1;47.62;2183;2018-04-16 23:26:00:956
-4.988;-8.501;0.22;-5.176;-8.317;0.455;0.187;-0.183;-0.234;0.108;0.189;0.011;18.3;0.6;36.1;47.62;2193;2018-04-16 23:26:00:966
-4.988;-8.501;0.22;-5.176;-8.317;0.455;0.187;-0.183;-0.234;0.09;0.199;0.012;18.3;0.6;36.1;47.62;2203;2018-04-16 23:26:00:976
-5.078;-8.48;0.192;-5.177;-8.317;0.445;0.099;-0.163;-0.253;0.078;0.187;0.017;18.3;0.6;36.1;47.62;2212;2018-04-16 23:26:00:985
-5.078;-8.48;0.192;-5.177;-8.317;0.445;0.099;-0.163;-0.253;0.072;0.171;0.018;18.3;0.6;36.1;47.62;2222;2018-04-16 23:26:00:995
-5.031;-8.42;0.253;-5.179;-8.316;0.436;0.148;-0.105;-0.184;0.061;0.155;0.022;18.3;0.6;36.3;49.79;2232;2018-04-16 23:26:01:005
-4.976;-8.461;0.268;-5.179;-8.316;0.436;0.148;-0.105;-0.184;0.043;0.153;0.023;18.3;0.6;36.3;49.79;2242;2018-04-16 23:26:01:015
-4.976;-8.461;0.268;-5.18;-8.316;0.423;0.233;-0.16;-0.149;0.018;0.16;0.021;18.3;0.7;36.2;49.79;2252;2018-04-16 23:26:01:025
-4.863;-8.48;0.271;-5.18;-8.316;0.423;0.233;-0.16;-0.149;-0.009;0.161;0.015;18.3;0.7;36.2;49.79;2262;2018-04-16 23:26:01:035
-4.769;-8.496;0.297;-5.173;-8.322;0.4;0.382;-0.153;-0.13;-0.034;0.153;0.01;18.2;0.6;36.1;49.79;2273;2018-04-16 23:26:01:046
-4.769;-8.496;0.297;-5.173;-8.322;0.4;0.382;-0.153;-0.13;-0.054;0.133;0.002;18.2;0.6;36.1;49.79;2283;2018-04-16 23:26:01:056
-4.811;-8.628;0.356;-5.162;-8.33;0.377;0.35;-0.298;-0.022;-0.071;0.108;-0.004;18.2;0.6;36.2;49.79;2293;2018-04-16 23:26:01:066
-4.9;-8.645;0.364;-5.162;-8.33;0.377;0.35;-0.298;-0.022;-0.088;0.084;-0.006;18.2;0.6;36.2;49.79;2303;2018-04-16 23:26:01:076
-4.9;-8.645;0.364;-5.152;-8.337;0.355;0.23;-0.241;0.007;-0.101;0.055;-0.013;18.2;0.6;36.1;49.79;2312;2018-04-16 23:26:01:085
-4.946;-8.456;0.347;-5.152;-8.337;0.355;0.23;-0.241;0.007;-0.106;0.007;-0.017;18.2;0.6;36.1;49.79;2322;2018-04-16 23:26:01:095
-5.024;-8.283;0.415;-5.146;-8.341;0.341;0.135;0.024;0.059;-0.105;-0.039;-0.017;18.2;0.6;36.0;49.79;2332;2018-04-16 23:26:01:105
-5.024;-8.283;0.415;-5.146;-8.341;0.341;0.135;0.024;0.059;-0.105;-0.092;-0.022;18.2;0.6;36.0;49.79;2342;2018-04-16 23:26:01:115
-5.121;-8.149;0.53;-5.143;-8.343;0.338;0.021;0.195;0.192;-0.104;-0.099;-0.021;18.2;0.6;35.9;49.79;2352;2018-04-16 23:26:01:125
-5.121;-8.149;0.53;-5.143;-8.343;0.338;0.021;0.195;0.192;-0.101;-0.078;-0.015;18.2;0.6;35.9;49.79;2363;2018-04-16 23:26:01:136
-5.124;-8.104;0.6;-5.144;-8.343;0.335;0.02;0.238;0.265;-0.103;-0.046;-0.009;18.2;0.6;35.9;49.79;2373;2018-04-16 23:26:01:146
-5.124;-8.104;0.6;-5.144;-8.343;0.335;0.02;0.238;0.265;-0.09;-0.017;-0.004;18.2;0.6;35.9;49.79;2383;2018-04-16 23:26:01:156
-5.09;-8.284;0.611;-5.144;-8.343;0.331;0.054;0.059;0.28;-0.073;0.001;-0.002;18.1;0.6;35.8;49.79;2393;2018-04-16 23:26:01:166
-5.09;-8.284;0.611;-5.144;-8.343;0.331;0.054;0.059;0.28;-0.049;0.01;0.0;18.1;0.6;35.8;49.79;2403;2018-04-16 23:26:01:176
-5.075;-8.551;0.542;-5.141;-8.345;0.331;0.066;-0.206;0.211;-0.022;0.012;-0.002;18.1;0.6;35.7;49.79;2413;2018-04-16 23:26:01:186
-5.075;-8.551;0.542;-5.141;-8.345;0.331;0.066;-0.206;0.211;0.005;-0.011;-0.001;18.1;0.6;35.7;49.79;2422;2018-04-16 23:26:01:195
-4.991;-8.559;0.425;-5.138;-8.346;0.34;0.147;-0.213;0.085;0.038;-0.044;0.002;18.1;0.6;35.7;49.79;2433;2018-04-16 23:26:01:206
-4.991;-8.559;0.425;-5.138;-8.346;0.34;0.147;-0.213;0.085;0.056;-0.078;-0.001;18.1;0.6;35.7;49.79;2443;2018-04-16 23:26:01:216
-4.791;-8.344;0.426;-5.132;-8.349;0.359;0.341;0.005;0.068;0.055;-0.083;-0.005;18.1;0.6;35.7;49.79;2453;2018-04-16 23:26:01:226
-4.793;-8.356;0.407;-5.132;-8.349;0.359;0.341;0.005;0.068;0.032;-0.053;-0.015;18.1;0.6;35.7;49.79;2463;2018-04-16 23:26:01:236
-4.793;-8.356;0.407;-5.123;-8.354;0.366;0.246;-0.053;0.052;-0.006;-0.012;-0.023;18.0;0.6;35.7;49.79;2473;2018-04-16 23:26:01:246
-5.011;-8.478;0.391;-5.123;-8.354;0.366;0.246;-0.053;0.052;-0.038;0.013;-0.031;18.0;0.6;35.7;49.79;2483;2018-04-16 23:26:01:256
-5.194;-8.526;0.365;-5.115;-8.359;0.358;-0.042;-0.14;0.0;-0.056;0.005;-0.031;17.9;0.5;35.5;49.79;2492;2018-04-16 23:26:01:265
-5.194;-8.526;0.365;-5.115;-8.359;0.358;-0.042;-0.14;0.0;-0.054;-0.044;-0.023;17.9;0.5;35.5;49.79;2502;2018-04-16 23:26:01:275
-5.272;-8.544;0.435;-5.111;-8.361;0.358;-0.161;-0.182;0.076;-0.035;-0.104;-0.017;17.9;0.4;35.4;49.79;2512;2018-04-16 23:26:01:285
-5.273;-8.379;0.461;-5.111;-8.361;0.358;-0.161;-0.182;0.076;-0.016;-0.151;-0.015;17.9;0.4;35.4;49.79;2522;2018-04-16 23:26:01:295
-5.273;-8.379;0.461;-5.109;-8.362;0.374;-0.144;0.073;0.085;-0.001;-0.175;-0.011;17.9;0.4;35.4;49.79;2532;2018-04-16 23:26:01:305
-5.154;-8.141;0.476;-5.109;-8.362;0.374;-0.144;0.073;0.085;0.011;-0.188;-0.001;17.9;0.4;35.4;49.79;2543;2018-04-16 23:26:01:316
-5.048;-8.08;0.546;-5.109;-8.361;0.397;0.04;0.296;0.131;0.02;-0.18;0.001;17.9;0.4;35.4;50.18;2552;2018-04-16 23:26:01:325
-5.048;-8.08;0.546;-5.109;-8.361;0.397;0.04;0.296;0.131;0.024;-0.14;0.006;17.9;0.4;35.4;50.18;2563;2018-04-16 23:26:01:336
-4.946;-8.206;0.539;-5.109;-8.361;0.412;0.163;0.154;0.126;0.009;-0.04;0.006;18.0;0.4;35.4;50.18;2573;2018-04-16 23:26:01:346
-4.946;-8.206;0.539;-5.109;-8.361;0.412;0.163;0.154;0.126;0.009;-0.04;0.006;18.0;0.4;35.4;50.18;2583;2018-04-16 23:26:01:356
-4.946;-8.453;0.402;-5.107;-8.362;0.412;0.161;-0.091;-0.009;0.0;0.035;-0.001;18.0;0.4;35.2;50.18;2593;2018-04-16 23:26:01:366
-4.967;-8.581;0.312;-5.107;-8.362;0.412;0.161;-0.091;-0.009;0.007;0.031;-0.009;18.0;0.4;35.2;50.18;2603;2018-04-16 23:26:01:376
-4.967;-8.581;0.312;-5.101;-8.365;0.411;0.106;-0.234;-0.108;0.023;-0.011;-0.016;18.0;0.4;35.2;50.18;2613;2018-04-16 23:26:01:386
-5.005;-8.553;0.328;-5.101;-8.365;0.411;0.106;-0.234;-0.108;0.054;-0.082;-0.028;18.0;0.4;35.2;50.18;2623;2018-04-16 23:26:01:396
-5.024;-8.422;0.433;-5.093;-8.369;0.429;0.073;-0.095;-0.022;0.057;-0.097;-0.035;18.1;0.4;35.2;50.18;2632;2018-04-16 23:26:01:405
-5.024;-8.422;0.433;-5.093;-8.369;0.429;0.073;-0.095;-0.022;0.044;-0.071;-0.039;18.1;0.4;35.2;50.18;2642;2018-04-16 23:26:01:415
-5.119;-8.274;0.474;-5.087;-8.373;0.439;-0.032;0.098;0.035;0.021;-0.015;-0.037;18.1;0.3;35.3;50.18;2652;2018-04-16 23:26:01:425
-5.119;-8.274;0.474;-5.087;-8.373;0.439;-0.032;0.098;0.035;-0.012;0.035;-0.028;18.1;0.3;35.3;50.18;2662;2018-04-16 23:26:01:435
-5.243;-8.244;0.339;-5.087;-8.373;0.429;-0.156;0.128;-0.09;-0.037;0.053;-0.016;18.2;0.3;35.3;50.18;2672;2018-04-16 23:26:01:445
-5.243;-8.244;0.339;-5.087;-8.373;0.429;-0.156;0.128;-0.09;-0.046;0.045;-0.001;18.2;0.3;35.3;50.18;2682;2018-04-16 23:26:01:455
-5.205;-8.352;0.385;-5.092;-8.371;0.415;-0.113;0.019;-0.03;-0.05;0.026;0.013;18.2;0.3;35.3;50.18;2692;2018-04-16 23:26:01:465
-5.205;-8.352;0.385;-5.092;-8.371;0.415;-0.113;0.019;-0.03;-0.05;0.026;0.013;18.2;0.3;35.3;50.18;2702;2018-04-16 23:26:01:475
-5.098;-8.418;0.429;-5.095;-8.369;0.404;-0.003;-0.049;0.025;-0.059;0.024;0.018;18.2;0.3;35.3;50.18;2713;2018-04-16 23:26:01:486
-5.006;-8.401;0.431;-5.095;-8.369;0.404;-0.003;-0.049;0.025;-0.065;0.027;0.016;18.2;0.3;35.3;50.18;2723;2018-04-16 23:26:01:496
-5.006;-8.401;0.431;-5.096;-8.37;0.391;0.1;-0.019;0.06;-0.067;0.023;0.009;18.3;0.2;35.3;50.18;2733;2018-04-16 23:26:01:506
-4.994;-8.357;0.5;-5.095;-8.37;0.386;0.101;0.013;0.114;-0.061;0.026;-0.001;18.3;0.2;35.4;50.18;2743;2018-04-16 23:26:01:516
-4.994;-8.357;0.5;-5.095;-8.37;0.386;0.101;0.013;0.114;-0.061;0.026;-0.001;18.3;0.2;35.4;50.18;2753;2018-04-16 23:26:01:526
-5.059;-8.325;0.549;-5.093;-8.372;0.379;0.034;0.047;0.171;-0.044;0.04;-0.015;18.3;0.2;35.2;50.18;2763;2018-04-16 23:26:01:536
-5.059;-8.325;0.549;-5.093;-8.372;0.379;0.034;0.047;0.171;-0.028;0.044;-0.018;18.3;0.2;35.2;50.18;2772;2018-04-16 23:26:01:545
-5.103;-8.35;0.503;-5.091;-8.373;0.376;-0.012;0.023;0.127;-0.028;0.044;-0.018;18.3;0.2;35.2;50.18;2783;2018-04-16 23:26:01:556
-5.108;-8.408;0.494;-5.091;-8.373;0.376;-0.012;0.023;0.127;0.012;0.029;-0.01;18.3;0.2;35.2;50.18;2794;2018-04-16 23:26:01:567
-5.108;-8.408;0.494;-5.09;-8.374;0.379;-0.007;-0.037;0.114;0.012;0.029;-0.01;18.3;0.2;35.3;50.18;2802;2018-04-16 23:26:01:575
-5.037;-8.425;0.496;-5.09;-8.374;0.379;-0.007;-0.037;0.114;0.029;0.027;-0.004;18.3;0.2;35.3;50.18;2813;2018-04-16 23:26:01:586
-4.991;-8.38;0.485;-5.088;-8.375;0.382;0.097;-0.005;0.103;0.017;0.046;-0.007;18.3;0.1;35.3;50.18;2822;2018-04-16 23:26:01:595
-4.991;-8.38;0.485;-5.088;-8.375;0.382;0.097;-0.005;0.103;0.0;0.082;-0.01;18.3;0.1;35.3;50.18;2833;2018-04-16 23:26:01:606
-4.957;-8.296;0.447;-5.085;-8.377;0.377;0.128;0.081;0.07;0.0;0.082;-0.01;18.4;0.1;35.2;50.18;2842;2018-04-16 23:26:01:615
-4.957;-8.296;0.447;-5.085;-8.377;0.377;0.128;0.081;0.07;0.001;0.082;-0.016;18.4;0.1;35.2;50.18;2853;2018-04-16 23:26:01:626
-5.029;-8.298;0.548;-5.082;-8.378;0.374;0.053;0.08;0.174;0.015;0.066;-0.016;18.4;0.0;35.2;50.18;2862;2018-04-16 23:26:01:635
-5.054;-8.295;0.53;-5.082;-8.378;0.374;0.053;0.08;0.174;0.035;0.066;-0.015;18.4;0.0;35.2;50.18;2873;2018-04-16 23:26:01:646
-5.054;-8.295;0.53;-5.082;-8.379;0.378;0.015;0.07;0.115;0.035;0.066;-0.015;18.4;0.0;35.4;50.18;2883;2018-04-16 23:26:01:656
-5.077;-8.335;0.46;-5.082;-8.379;0.378;0.015;0.07;0.115;0.05;0.055;-0.007;18.4;0.0;35.4;50.6;2892;2018-04-16 23:26:01:665
-5.077;-8.335;0.46;-5.081;-8.379;0.383;0.02;0.03;0.068;0.054;0.048;-0.002;18.4;0.0;35.4;50.6;2902;2018-04-16 23:26:01:675
-4.991;-8.351;0.458;-5.081;-8.379;0.383;0.02;0.03;0.068;0.05;0.046;-0.004;18.4;0.0;35.4;50.6;2912;2018-04-16 23:26:01:685
-4.991;-8.351;0.458;-5.079;-8.38;0.388;0.133;0.031;0.077;0.05;0.046;-0.004;18.4;0.0;35.5;50.6;2922;2018-04-16 23:26:01:695
-4.883;-8.346;0.461;-5.079;-8.38;0.388;0.133;0.031;0.077;0.043;0.068;-0.006;18.4;0.0;35.5;50.6;2932;2018-04-16 23:26:01:705
-4.883;-8.346;0.461;-5.075;-8.382;0.388;0.227;0.024;0.029;0.029;0.083;-0.007;18.4;0.0;35.4;50.6;2942;2018-04-16 23:26:01:715
-4.853;-8.395;0.338;-5.075;-8.382;0.388;0.227;0.024;0.029;0.021;0.075;-0.01;18.4;0.0;35.4;50.6;2952;2018-04-16 23:26:01:725
-4.853;-8.395;0.338;-5.069;-8.386;0.384;0.21;-0.046;-0.025;0.006;0.046;-0.01;18.4;0.0;35.4;50.6;2962;2018-04-16 23:26:01:735
-4.911;-8.464;0.399;-5.069;-8.386;0.384;0.21;-0.046;-0.025;-0.005;0.018;-0.01;18.4;0.0;35.4;50.6;2972;2018-04-16 23:26:01:745
-4.911;-8.464;0.399;-5.064;-8.389;0.381;0.118;-0.098;0.026;-0.018;0.007;-0.009;18.3;0.0;35.3;50.6;2982;2018-04-16 23:26:01:755
-4.993;-8.492;0.407;-5.064;-8.389;0.381;0.118;-0.098;0.026;-0.031;-0.012;-0.004;18.3;0.0;35.3;50.6;2992;2018-04-16 23:26:01:765
-4.993;-8.492;0.407;-5.062;-8.391;0.379;0.016;-0.085;0.035;-0.039;-0.038;-0.005;18.3;0.0;35.3;50.6;3003;2018-04-16 23:26:01:776
-5.072;-8.39;0.426;-5.062;-8.391;0.379;0.016;-0.085;0.035;-0.043;-0.073;-0.001;18.3;0.0;35.3;50.6;3012;2018-04-16 23:26:01:785
-5.043;-8.235;0.461;-5.061;-8.391;0.38;0.011;0.113;0.047;-0.037;-0.103;0.002;18.2;0.0;35.2;50.6;3023;2018-04-16 23:26:01:796
-5.043;-8.235;0.461;-5.061;-8.391;0.38;0.011;0.113;0.047;-0.037;-0.103;0.002;18.2;0.0;35.2;50.6;3033;2018-04-16 23:26:01:806
-5.015;-8.18;0.512;-5.061;-8.391;0.384;0.047;0.211;0.128;-0.031;-0.115;0.002;18.2;0.0;35.2;50.6;3042;2018-04-16 23:26:01:815
-4.946;-8.223;0.691;-5.061;-8.39;0.395;0.115;0.167;0.296;-0.013;-0.071;0.004;18.2;0.0;35.2;50.6;3053;2018-04-16 23:26:01:826
-4.946;-8.223;0.691;-5.061;-8.39;0.395;0.115;0.167;0.296;-0.013;-0.071;0.004;18.2;0.0;35.2;50.6;3062;2018-04-16 23:26:01:835
-4.905;-8.364;0.566;-5.061;-8.391;0.395;0.156;0.027;0.172;-0.009;0.048;0.001;18.2;0.0;35.3;50.6;3073;2018-04-16 23:26:01:846
-4.905;-8.364;0.566;-5.061;-8.391;0.395;0.156;0.027;0.172;0.005;0.051;-0.005;18.2;0.0;35.3;50.6;3082;2018-04-16 23:26:01:855
-4.946;-8.442;0.415;-5.057;-8.393;0.395;0.111;-0.049;0.021;0.026;0.017;-0.01;18.2;0.0;35.2;50.6;3092;2018-04-16 23:26:01:865
-5.076;-8.491;0.443;-5.057;-8.393;0.395;0.111;-0.049;0.021;0.046;-0.033;-0.011;18.2;0.0;35.2;50.6;3103;2018-04-16 23:26:01:876
-5.076;-8.491;0.443;-5.054;-8.394;0.408;-0.071;-0.103;0.061;0.048;-0.068;-0.016;18.2;0.0;35.2;50.6;3112;2018-04-16 23:26:01:885
-5.176;-8.449;0.478;-5.054;-8.394;0.408;-0.071;-0.103;0.061;0.048;-0.068;-0.016;18.2;0.0;35.2;50.6;3122;2018-04-16 23:26:01:895
-5.176;-8.449;0.478;-5.053;-8.394;0.422;-0.133;0.032;0.013;0.026;-0.078;-0.006;18.2;0.0;35.3;50.6;3132;2018-04-16 23:26:01:905
-5.187;-8.284;0.378;-5.053;-8.394;0.422;-0.133;0.032;0.013;0.013;-0.086;0.005;18.2;0.0;35.3;50.6;3142;2018-04-16 23:26:01:915
-5.233;-8.209;0.438;-5.055;-8.392;0.434;-0.157;0.172;-0.01;0.011;-0.126;0.018;18.2;0.0;35.2;50.6;3153;2018-04-16 23:26:01:926
-5.233;-8.209;0.438;-5.055;-8.392;0.434;-0.157;0.172;-0.01;0.011;-0.126;0.018;18.2;0.0;35.2;50.6;3162;2018-04-16 23:26:01:935
-5.254;-8.21;0.515;-5.062;-8.387;0.452;-0.192;0.177;0.063;0.032;-0.144;0.039;18.2;0.0;35.2;50.6;3173;2018-04-16 23:26:01:946
-5.254;-8.21;0.515;-5.062;-8.387;0.452;-0.192;0.177;0.063;0.043;-0.121;0.053;18.2;0.0;35.2;50.6;3183;2018-04-16 23:26:01:956
-5.155;-8.384;0.569;-5.071;-8.38;0.472;-0.084;-0.004;0.097;0.043;-0.121;0.053;18.2;0.0;35.1;50.6;3192;2018-04-16 23:26:01:965
-5.04;-8.489;0.575;-5.076;-8.377;0.48;0.036;-0.111;0.095;0.07;-0.031;0.059;18.2;0.0;35.1;50.6;3203;2018-04-16 23:26:01:976
-5.04;-8.489;0.575;-5.076;-8.377;0.48;0.036;-0.111;0.095;0.083;0.02;0.057;18.2;0.0;35.1;50.78;3213;2018-04-16 23:26:01:986
-4.847;-8.605;0.491;-5.083;-8.372;0.49;0.236;-0.232;0.001;0.089;0.066;0.049;18.1;0.0;35.0;50.78;3223;2018-04-16 23:26:01:996
-4.847;-8.605;0.491;-5.083;-8.372;0.49;0.236;-0.232;0.001;0.087;0.101;0.039;18.1;0.0;35.0;50.78;3233;2018-04-16 23:26:02:006
-4.758;-8.604;0.391;-5.086;-8.37;0.492;0.328;-0.233;-0.101;0.087;0.101;0.039;18.2;-0.1;35.1;50.78;3244;2018-04-16 23:26:02:017
-4.758;-8.604;0.391;-5.086;-8.37;0.492;0.328;-0.233;-0.101;0.075;0.125;0.013;18.2;-0.1;35.1;50.78;3254;2018-04-16 23:26:02:027
-4.911;-8.551;0.334;-5.086;-8.37;0.49;0.175;-0.181;-0.156;0.062;0.115;0.0;18.2;-0.1;35.1;50.78;3263;2018-04-16 23:26:02:036
-5.013;-8.529;0.297;-5.085;-8.371;0.49;0.072;-0.159;-0.193;0.057;0.089;-0.004;18.2;-0.1;35.1;50.78;3272;2018-04-16 23:26:02:045
-5.013;-8.529;0.297;-5.085;-8.371;0.49;0.072;-0.159;-0.193;0.057;0.089;-0.004;18.2;-0.1;35.1;50.78;3283;2018-04-16 23:26:02:056
-5.13;-8.514;0.212;-5.085;-8.371;0.495;-0.045;-0.143;-0.283;0.051;-0.015;0.0;18.3;-0.1;35.2;50.78;3293;2018-04-16 23:26:02:066
-5.13;-8.514;0.212;-5.085;-8.371;0.495;-0.045;-0.143;-0.283;0.051;-0.015;0.0;18.3;-0.1;35.2;50.78;3302;2018-04-16 23:26:02:075
-4.982;-8.424;0.231;-5.084;-8.37;0.509;0.102;-0.054;-0.278;0.044;-0.114;0.012;18.3;-0.1;35.2;50.78;3313;2018-04-16 23:26:02:086
-4.982;-8.424;0.231;-5.084;-8.37;0.509;0.102;-0.054;-0.278;0.031;-0.123;0.013;18.3;-0.1;35.2;50.78;3322;2018-04-16 23:26:02:095
-4.879;-8.481;0.345;-5.084;-8.37;0.52;0.204;-0.112;-0.176;-0.004;-0.097;0.015;18.3;-0.1;35.3;50.78;3333;2018-04-16 23:26:02:106
-4.879;-8.481;0.345;-5.084;-8.37;0.52;0.204;-0.112;-0.176;-0.064;-0.001;0.012;18.3;-0.1;35.3;50.78;3343;2018-04-16 23:26:02:116
-4.797;-8.423;0.3;-5.082;-8.372;0.507;0.285;-0.051;-0.207;-0.104;0.05;0.009;18.4;0.0;35.3;50.78;3352;2018-04-16 23:26:02:125
-4.797;-8.423;0.3;-5.082;-8.372;0.507;0.285;-0.051;-0.207;-0.104;0.05;0.009;18.4;0.0;35.3;50.78;3363;2018-04-16 23:26:02:136
-4.864;-8.394;0.256;-5.081;-8.374;0.475;0.217;-0.02;-0.219;-0.145;0.06;0.009;18.4;0.0;35.3;50.78;3373;2018-04-16 23:26:02:146
-4.864;-8.394;0.256;-5.081;-8.374;0.475;0.217;-0.02;-0.219;-0.164;0.044;0.006;18.4;0.0;35.3;50.78;3383;2018-04-16 23:26:02:156
-5.012;-8.425;0.339;-5.081;-8.376;0.442;0.069;-0.049;-0.103;-0.181;0.017;0.006;18.4;0.0;35.4;50.78;3392;2018-04-16 23:26:02:165
-5.091;-8.425;0.397;-5.081;-8.376;0.442;0.069;-0.049;-0.103;-0.18;-0.024;0.011;18.4;0.0;35.4;50.78;3402;2018-04-16 23:26:02:175
-5.091;-8.425;0.397;-5.082;-8.377;0.418;-0.009;-0.043;0.033;-0.18;-0.024;0.011;18.5;0.0;35.4;50.78;3413;2018-04-16 23:26:02:186
-5.114;-8.448;0.645;-5.082;-8.377;0.418;-0.009;-0.043;0.033;-0.137;-0.116;0.017;18.5;0.0;35.4;50.78;3422;2018-04-16 23:26:02:195
-5.114;-8.448;0.645;-5.084;-8.376;0.412;0.019;-0.037;0.344;-0.09;-0.087;0.018;18.5;0.0;35.5;50.78;3433;2018-04-16 23:26:02:206
-5.022;-8.358;0.806;-5.085;-8.375;0.411;0.063;0.017;0.395;-0.072;-0.054;0.015;18.5;0.0;35.5;50.78;3442;2018-04-16 23:26:02:215
-5.022;-8.358;0.806;-5.085;-8.375;0.411;0.063;0.017;0.395;-0.072;-0.054;0.015;18.5;0.0;35.5;50.78;3453;2018-04-16 23:26:02:226
-4.946;-8.284;0.619;-5.087;-8.374;0.402;0.141;0.091;0.217;-0.005;0.128;0.012;18.5;0.0;35.5;50.78;3463;2018-04-16 23:26:02:236
-4.946;-8.284;0.619;-5.087;-8.374;0.402;0.141;0.091;0.217;0.012;0.149;0.006;18.5;0.0;35.5;50.78;3473;2018-04-16 23:26:02:246
-4.919;-8.351;0.382;-5.087;-8.375;0.391;0.149;-0.03;-0.079;0.032;0.126;0.0;18.5;0.0;35.6;50.78;3483;2018-04-16 23:26:02:256
-4.964;-8.498;0.255;-5.087;-8.375;0.391;0.149;-0.03;-0.079;0.032;0.126;0.0;18.5;0.0;35.6;50.78;3493;2018-04-16 23:26:02:266
-4.964;-8.498;0.255;-5.086;-8.375;0.391;0.102;-0.214;-0.13;0.046;0.035;0.004;18.5;0.0;35.7;50.78;3503;2018-04-16 23:26:02:276
-4.956;-8.661;0.254;-5.086;-8.375;0.391;0.102;-0.214;-0.13;0.043;-0.012;-0.001;18.5;0.0;35.7;50.78;3513;2018-04-16 23:26:02:286
-4.986;-8.625;0.292;-5.083;-8.377;0.401;0.098;-0.248;-0.108;0.043;-0.055;-0.011;18.5;0.0;35.8;50.78;3523;2018-04-16 23:26:02:296
-4.979;-8.511;0.326;-5.082;-8.377;0.408;0.103;-0.134;-0.082;0.043;-0.083;-0.011;18.5;0.0;35.8;50.7;3533;2018-04-16 23:26:02:306
-4.979;-8.511;0.326;-5.082;-8.377;0.408;0.103;-0.134;-0.082;0.043;-0.083;-0.011;18.5;0.0;35.8;50.7;3542;2018-04-16 23:26:02:315
-4.968;-8.299;0.34;-5.078;-8.379;0.423;0.11;0.079;-0.083;0.038;-0.09;-0.011;18.5;0.0;35.8;50.7;3553;2018-04-16 23:26:02:326
-4.968;-8.299;0.34;-5.078;-8.379;0.423;0.11;0.079;-0.083;0.037;-0.082;-0.009;18.5;0.0;35.8;50.7;3563;2018-04-16 23:26:02:336
-4.997;-8.297;0.383;-5.076;-8.379;0.435;0.08;0.082;-0.052;0.032;-0.055;-0.004;18.5;0.0;35.8;50.7;3572;2018-04-16 23:26:02:345
-4.997;-8.297;0.383;-5.076;-8.379;0.435;0.08;0.082;-0.052;0.021;-0.02;0.005;18.5;0.0;35.8;50.7;3583;2018-04-16 23:26:02:356
-4.949;-8.328;0.224;-5.076;-8.379;0.436;0.127;0.051;-0.212;0.009;0.002;0.006;18.6;0.0;35.8;50.7;3593;2018-04-16 23:26:02:366
-4.946;-8.371;0.178;-5.076;-8.379;0.434;0.13;0.008;-0.256;0.006;-0.007;0.011;18.6;0.0;35.9;50.7;3603;2018-04-16 23:26:02:376
-4.946;-8.371;0.178;-5.076;-8.379;0.434;0.13;0.008;-0.256;0.002;-0.04;0.007;18.6;0.0;35.9;50.7;3612;2018-04-16 23:26:02:385
-4.944;-8.537;0.251;-5.074;-8.381;0.434;0.13;-0.156;-0.183;-0.005;-0.042;0.0;18.6;0.0;35.9;50.7;3622;2018-04-16 23:26:02:395
-4.946;-8.59;0.278;-5.074;-8.381;0.434;0.13;-0.156;-0.183;-0.02;-0.024;-0.001;18.6;0.0;35.9;50.7;3633;2018-04-16 23:26:02:406
-4.946;-8.59;0.278;-5.072;-8.382;0.432;0.123;-0.206;-0.15;-0.039;-0.001;-0.004;18.6;0.0;36.0;50.7;3643;2018-04-16 23:26:02:416
-4.952;-8.54;0.287;-5.072;-8.382;0.432;0.123;-0.206;-0.15;-0.039;-0.001;-0.004;18.6;0.0;36.0;50.7;3652;2018-04-16 23:26:02:425
-4.952;-8.54;0.287;-5.069;-8.384;0.42;0.116;-0.078;-0.074;-0.054;0.029;-0.012;18.6;0.0;36.1;50.7;3663;2018-04-16 23:26:02:436
-4.969;-8.362;0.42;-5.069;-8.384;0.42;0.116;-0.078;-0.074;-0.055;0.048;-0.012;18.6;0.0;36.1;50.7;3672;2018-04-16 23:26:02:445
-4.969;-8.362;0.42;-5.067;-8.387;0.405;0.106;0.113;0.014;-0.055;0.048;-0.012;18.6;0.0;36.1;50.7;3682;2018-04-16 23:26:02:455
-5.003;-8.24;0.414;-5.067;-8.387;0.405;0.106;0.113;0.014;-0.05;0.105;-0.018;18.6;0.0;36.1;50.7;3693;2018-04-16 23:26:02:466
-5.003;-8.24;0.414;-5.065;-8.388;0.385;0.062;0.149;0.029;-0.048;0.125;-0.013;18.6;0.0;36.0;50.7;3702;2018-04-16 23:26:02:475
-5.103;-8.309;0.324;-5.065;-8.388;0.385;0.062;0.149;0.029;-0.043;0.111;-0.006;18.6;0.0;36.0;50.7;3712;2018-04-16 23:26:02:485
-5.103;-8.309;0.324;-5.066;-8.389;0.368;-0.051;0.01;-0.063;-0.043;0.111;-0.006;18.6;0.0;36.0;50.7;3722;2018-04-16 23:26:02:495
-5.1;-8.436;0.34;-5.066;-8.389;0.368;-0.051;0.01;-0.063;-0.028;0.048;0.012;18.6;0.0;36.0;50.7;3732;2018-04-16 23:26:02:505
-5.1;-8.436;0.34;-5.068;-8.388;0.36;-0.032;-0.048;-0.02;-0.02;0.029;0.016;18.5;0.0;35.9;50.7;3742;2018-04-16 23:26:02:515
-4.985;-8.438;0.4;-5.069;-8.387;0.357;0.055;-0.071;0.042;-0.02;0.029;0.016;18.5;0.0;35.9;50.7;3752;2018-04-16 23:26:02:525
-4.985;-8.438;0.4;-5.069;-8.387;0.357;0.055;-0.071;0.042;-0.023;0.029;0.017;18.5;0.0;35.9;50.7;3762;2018-04-16 23:26:02:535
-4.864;-8.335;0.369;-5.071;-8.387;0.35;0.137;-0.013;0.04;-0.032;0.031;0.015;18.4;0.0;35.9;50.7;3772;2018-04-16 23:26:02:545
-4.864;-8.335;0.369;-5.071;-8.387;0.35;0.137;-0.013;0.04;-0.032;0.031;0.015;18.4;0.0;35.9;50.7;3782;2018-04-16 23:26:02:555
-4.816;-8.273;0.436;-5.071;-8.387;0.344;0.255;0.114;0.092;-0.029;0.02;0.01;18.4;0.0;35.9;50.7;3792;2018-04-16 23:26:02:565
-4.816;-8.273;0.436;-5.071;-8.387;0.344;0.255;0.114;0.092;-0.029;0.02;0.01;18.4;0.0;35.9;50.7;3802;2018-04-16 23:26:02:575
-4.926;-8.376;0.457;-5.07;-8.388;0.34;0.144;0.011;0.118;-0.02;0.017;0.001;18.4;0.0;35.7;50.7;3812;2018-04-16 23:26:02:585
-4.926;-8.376;0.457;-5.07;-8.388;0.34;0.144;0.011;0.118;0.002;-0.002;0.0;18.4;0.0;35.7;50.7;3822;2018-04-16 23:26:02:595
-5.086;-8.503;0.369;-5.069;-8.388;0.345;-0.017;-0.115;0.024;0.027;-0.044;0.002;18.4;-0.1;35.6;50.7;3832;2018-04-16 23:26:02:605
-5.086;-8.503;0.369;-5.069;-8.388;0.345;-0.017;-0.115;0.024;0.05;-0.093;0.006;18.4;-0.1;35.6;50.7;3842;2018-04-16 23:26:02:615
-5.091;-8.574;0.3;-5.069;-8.387;0.366;-0.022;-0.187;-0.065;0.065;-0.137;0.011;18.3;-0.1;35.6;50.58;3852;2018-04-16 23:26:02:625
-5.091;-8.574;0.3;-5.069;-8.387;0.366;-0.022;-0.187;-0.065;0.076;-0.153;0.016;18.3;-0.1;35.6;50.58;3862;2018-04-16 23:26:02:635
-4.921;-8.412;0.395;-5.07;-8.385;0.391;0.149;-0.027;0.004;0.053;-0.097;0.015;18.3;0.0;35.6;50.58;3872;2018-04-16 23:26:02:645
-4.921;-8.412;0.395;-5.07;-8.385;0.391;0.149;-0.027;0.004;0.053;-0.097;0.015;18.3;0.0;35.6;50.58;3882;2018-04-16 23:26:02:655
-4.818;-8.236;0.346;-5.071;-8.385;0.398;0.252;0.149;-0.052;0.01;0.007;0.011;18.3;-0.1;35.6;50.58;3892;2018-04-16 23:26:02:665
-4.818;-8.236;0.346;-5.071;-8.385;0.398;0.252;0.149;-0.052;-0.002;0.049;0.011;18.3;-0.1;35.6;50.58;3902;2018-04-16 23:26:02:675
-4.948;-8.332;0.401;-5.072;-8.384;0.39;0.124;0.053;0.011;-0.01;0.086;0.006;18.2;-0.1;35.6;50.58;3912;2018-04-16 23:26:02:685
-4.948;-8.332;0.401;-5.072;-8.384;0.39;0.124;0.053;0.011;-0.01;0.086;0.006;18.2;-0.1;35.6;50.58;3923;2018-04-16 23:26:02:696
-5.134;-8.611;0.475;-5.073;-8.384;0.382;-0.061;-0.227;0.093;0.011;0.09;0.011;18.2;-0.1;35.4;50.58;3932;2018-04-16 23:26:02:705
-5.104;-8.626;0.457;-5.075;-8.383;0.38;-0.03;-0.243;0.077;0.024;0.082;0.018;18.2;-0.1;35.4;50.58;3943;2018-04-16 23:26:02:716
-4.946;-8.551;0.335;-5.075;-8.383;0.38;-0.03;-0.243;0.077;0.037;0.059;0.021;18.2;-0.1;35.4;50.58;3953;2018-04-16 23:26:02:726
-4.946;-8.551;0.335;-5.077;-8.382;0.38;0.21;-0.111;-0.069;0.04;0.043;0.02;18.2;-0.2;35.4;50.58;3962;2018-04-16 23:26:02:735
-4.77;-8.411;0.348;-5.077;-8.382;0.38;0.21;-0.111;-0.069;0.028;0.009;0.011;18.2;-0.2;35.4;50.58;3973;2018-04-16 23:26:02:746
-4.77;-8.411;0.348;-5.076;-8.382;0.384;0.326;-0.002;0.049;0.028;0.009;0.011;18.1;-0.2;35.4;50.58;3982;2018-04-16 23:26:02:755
-4.787;-8.406;0.491;-5.076;-8.382;0.384;0.326;-0.002;0.049;-0.004;0.043;0.002;18.1;-0.2;35.4;50.58;3993;2018-04-16 23:26:02:766
-4.849;-8.437;0.494;-5.075;-8.383;0.375;0.25;-0.048;0.124;-0.038;0.093;0.005;18.1;-0.1;35.5;50.58;4002;2018-04-16 23:26:02:775
-4.849;-8.437;0.494;-5.075;-8.383;0.375;0.25;-0.048;0.124;-0.038;0.093;0.005;18.1;-0.1;35.5;50.58;4013;2018-04-16 23:26:02:786
-4.961;-8.43;0.473;-5.074;-8.384;0.362;0.113;-0.046;0.111;-0.028;0.071;0.001;18.1;-0.1;35.6;50.58;4023;2018-04-16 23:26:02:796
-5.066;-8.362;0.524;-5.074;-8.384;0.362;0.113;-0.046;0.111;-0.002;0.027;0.006;18.1;-0.1;35.6;50.58;4033;2018-04-16 23:26:02:806
-5.066;-8.362;0.524;-5.075;-8.384;0.365;-0.02;0.029;0.177;0.033;-0.022;0.006;18.2;0.0;35.7;50.58;4043;2018-04-16 23:26:02:816
-5.162;-8.381;0.553;-5.075;-8.384;0.365;-0.02;0.029;0.177;0.033;-0.022;0.006;18.2;0.0;35.7;50.58;4053;2018-04-16 23:26:02:826
-5.162;-8.381;0.553;-5.076;-8.382;0.378;-0.073;-0.024;0.155;0.053;-0.029;0.012;18.2;-0.1;35.7;50.58;4063;2018-04-16 23:26:02:836
-5.162;-8.381;0.553;-5.076;-8.382;0.378;-0.073;-0.024;0.155;0.053;-0.029;0.012;18.2;-0.1;35.7;50.58;4072;2018-04-16 23:26:02:845
-5.076;-8.399;0.487;-5.078;-8.38;0.383;0.003;-0.018;0.104;0.053;-0.016;0.026;18.2;0.0;35.8;50.58;4083;2018-04-16 23:26:02:856
-4.787;-8.423;0.292;-5.078;-8.38;0.383;0.003;-0.018;0.104;0.042;-0.013;0.037;18.2;0.0;35.8;50.58;4093;2018-04-16 23:26:02:866
-4.787;-8.423;0.292;-5.084;-8.376;0.395;0.341;-0.086;-0.084;0.031;-0.027;0.037;18.2;0.0;36.0;50.58;4102;2018-04-16 23:26:02:875
-4.735;-8.511;0.372;-5.084;-8.376;0.395;0.341;-0.086;-0.084;0.002;-0.012;0.022;18.2;0.0;36.0;50.58;4113;2018-04-16 23:26:02:886
-4.735;-8.511;0.372;-5.083;-8.377;0.396;0.264;-0.17;0.005;0.002;-0.012;0.022;18.2;0.0;36.1;50.58;4122;2018-04-16 23:26:02:895
-4.946;-8.533;0.345;-5.083;-8.377;0.396;0.264;-0.17;0.005;-0.034;0.012;0.016;18.2;0.0;36.1;50.58;4133;2018-04-16 23:26:02:906
-4.946;-8.533;0.345;-5.084;-8.377;0.389;0.054;-0.095;-0.053;-0.037;-0.009;0.015;18.2;0.1;36.2;50.58;4142;2018-04-16 23:26:02:915
-5.1;-8.436;0.409;-5.084;-8.377;0.389;0.054;-0.095;-0.053;-0.015;-0.076;0.026;18.2;0.1;36.2;50.58;4152;2018-04-16 23:26:02:925
-5.1;-8.436;0.409;-5.088;-8.374;0.395;-0.012;0.003;0.144;-0.015;-0.076;0.026;18.2;0.1;36.3;50.58;4162;2018-04-16 23:26:02:935
-5.054;-8.283;0.642;-5.088;-8.374;0.395;-0.012;0.003;0.144;0.018;-0.088;0.038;18.2;0.1;36.3;50.58;4172;2018-04-16 23:26:02:945
-5.054;-8.283;0.642;-5.094;-8.37;0.408;0.098;0.115;0.291;0.024;-0.044;0.043;18.2;0.2;36.3;50.58;4183;2018-04-16 23:26:02:956
-4.961;-8.261;0.682;-5.094;-8.37;0.408;0.098;0.115;0.291;0.021;0.066;0.05;18.2;0.2;36.3;50.83;4192;2018-04-16 23:26:02:965
-4.948;-8.323;0.633;-5.102;-8.365;0.407;0.154;0.042;0.226;0.021;0.066;0.05;18.2;0.2;36.3;50.83;4203;2018-04-16 23:26:02:976
-4.966;-8.402;0.571;-5.106;-8.363;0.402;0.141;-0.04;0.169;0.009;0.134;0.055;18.2;0.2;36.3;50.83;4212;2018-04-16 23:26:02:985
-4.966;-8.402;0.571;-5.106;-8.363;0.402;0.141;-0.04;0.169;0.009;0.134;0.055;18.2;0.2;36.3;50.83;4222;2018-04-16 23:26:02:995
-5.013;-8.517;0.511;-5.116;-8.357;0.396;0.102;-0.16;0.116;0.038;0.094;0.061;18.2;0.3;36.4;50.83;4233;2018-04-16 23:26:03:006
-5.012;-8.509;0.503;-5.116;-8.357;0.396;0.102;-0.16;0.116;0.07;0.033;0.065;18.2;0.3;36.4;50.83;4242;2018-04-16 23:26:03:015
-5.012;-8.509;0.503;-5.125;-8.351;0.41;0.135;-0.113;0.086;0.098;-0.023;0.066;18.1;0.4;36.5;50.83;4253;2018-04-16 23:26:03:026
-4.948;-8.368;0.492;-5.13;-8.347;0.424;0.183;-0.021;0.068;0.12;-0.07;0.068;18.1;0.4;36.5;50.83;4263;2018-04-16 23:26:03:036
-4.948;-8.368;0.492;-5.13;-8.347;0.424;0.183;-0.021;0.068;0.12;-0.07;0.068;18.1;0.4;36.5;50.83;4272;2018-04-16 23:26:03:045
-4.948;-8.368;0.492;-5.13;-8.347;0.424;0.183;-0.021;0.068;0.12;-0.07;0.079;18.1;0.5;36.5;50.83;4283;2018-04-16 23:26:03:056
-4.866;-8.314;0.499;-5.14;-8.339;0.455;0.274;0.025;0.044;0.126;-0.087;0.079;18.1;0.5;36.5;50.83;4293;2018-04-16 23:26:03:066
-4.784;-8.434;0.419;-5.14;-8.339;0.455;0.274;0.025;0.044;0.087;-0.024;0.083;18.1;0.5;36.5;50.83;4302;2018-04-16 23:26:03:075
-4.784;-8.434;0.419;-5.155;-8.328;0.482;0.394;-0.132;-0.112;0.066;-0.018;0.079;18.1;0.5;36.6;50.83;4313;2018-04-16 23:26:03:086
-4.749;-8.513;0.318;-5.155;-8.328;0.482;0.394;-0.132;-0.112;0.066;-0.018;0.079;18.1;0.5;36.6;50.83;4323;2018-04-16 23:26:03:096
-4.766;-8.599;0.261;-5.163;-8.323;0.494;0.415;-0.226;-0.213;0.051;-0.076;0.071;18.1;0.5;36.7;50.83;4332;2018-04-16 23:26:03:105
-4.766;-8.599;0.261;-5.163;-8.323;0.494;0.415;-0.226;-0.213;0.05;-0.13;0.067;18.1;0.5;36.7;50.83;4343;2018-04-16 23:26:03:116
-4.834;-8.722;0.182;-5.168;-8.318;0.517;0.335;-0.404;-0.335;0.06;-0.186;0.065;18.1;0.6;36.7;50.83;4352;2018-04-16 23:26:03:125
-4.834;-8.722;0.182;-5.168;-8.318;0.517;0.335;-0.404;-0.335;0.072;-0.246;0.061;18.1;0.6;36.7;50.83;4362;2018-04-16 23:26:03:135
-4.946;-8.813;0.055;-5.172;-8.313;0.554;0.226;-0.5;-0.499;0.081;-0.292;0.056;18.1;0.6;36.7;50.83;4372;2018-04-16 23:26:03:145
-4.946;-8.813;0.055;-5.172;-8.313;0.554;0.226;-0.5;-0.499;0.089;-0.31;0.051;18.1;0.6;36.7;50.83;4382;2018-04-16 23:26:03:155
-4.946;-8.589;-0.217;-5.175;-8.309;0.594;0.228;-0.28;-0.811;0.082;-0.308;0.049;18.1;0.7;36.7;50.83;4393;2018-04-16 23:26:03:166
-4.83;-8.424;-0.472;-5.175;-8.308;0.61;0.344;-0.116;-1.082;0.064;-0.302;0.035;18.2;0.7;36.6;50.83;4404;2018-04-16 23:26:03:177
-4.83;-8.424;-0.472;-5.175;-8.308;0.61;0.344;-0.116;-1.082;0.064;-0.302;0.035;18.2;0.7;36.6;50.83;4413;2018-04-16 23:26:03:186
-4.575;-8.236;-0.371;-5.172;-8.309;0.621;0.597;0.073;-0.992;-0.033;-0.137;0.012;18.2;0.8;36.7;50.83;4422;2018-04-16 23:26:03:195
-4.6;-8.329;-0.079;-5.172;-8.309;0.621;0.597;0.073;-0.992;-0.15;0.231;-0.02;18.2;0.8;36.7;50.83;4433;2018-04-16 23:26:03:206
-4.6;-8.329;-0.079;-5.168;-8.315;0.565;0.481;-0.152;-0.607;-0.15;0.231;-0.02;18.2;0.8;36.7;50.83;4442;2018-04-16 23:26:03:215
-4.87;-8.707;-0.132;-5.168;-8.315;0.565;0.481;-0.152;-0.607;-0.243;0.645;-0.049;18.2;0.8;36.7;50.83;4453;2018-04-16 23:26:03:226
-5.031;-8.934;-0.6;-5.163;-8.326;0.443;0.167;-0.553;-0.88;-0.271;0.8;-0.064;18.2;0.8;36.7;50.83;4462;2018-04-16 23:26:03:235
-5.031;-8.934;-0.6;-5.163;-8.326;0.443;0.167;-0.553;-0.88;-0.276;0.812;-0.071;18.2;0.8;36.7;50.83;4473;2018-04-16 23:26:03:246
-4.955;-9.008;-1.128;-5.155;-8.337;0.312;0.2;-0.672;-1.44;-0.272;0.72;-0.073;18.2;0.8;36.7;50.83;4483;2018-04-16 23:26:03:256
-4.955;-9.008;-1.128;-5.155;-8.337;0.312;0.2;-0.672;-1.44;-0.272;0.72;-0.073;18.2;0.8;36.7;50.83;4492;2018-04-16 23:26:03:265
-4.483;-8.758;-1.112;-5.141;-8.349;0.196;0.658;-0.409;-1.308;-0.302;0.536;-0.077;18.2;0.8;36.7;50.83;4503;2018-04-16 23:26:03:276
-4.483;-8.758;-1.112;-5.141;-8.349;0.196;0.658;-0.409;-1.308;-0.351;0.579;-0.101;18.2;0.8;36.7;51.16;4513;2018-04-16 23:26:03:286
-3.792;-8.256;-0.151;-5.117;-8.366;0.061;1.324;0.109;-0.212;-0.396;0.739;-0.137;18.1;0.8;36.8;51.16;4522;2018-04-16 23:26:03:295
-3.658;-8.071;0.394;-5.117;-8.366;0.061;1.324;0.109;-0.212;-0.4;1.005;-0.21;18.1;0.8;36.8;51.16;4533;2018-04-16 23:26:03:306
-3.658;-8.071;0.394;-5.072;-8.392;-0.116;1.344;0.247;0.498;-0.335;1.285;-0.286;18.0;0.8;36.8;51.16;4543;2018-04-16 23:26:03:316
-3.739;-8.393;0.146;-5.072;-8.392;-0.116;1.344;0.247;0.498;-0.335;1.285;-0.286;18.0;0.8;36.8;51.16;4553;2018-04-16 23:26:03:326
-3.739;-8.393;0.146;-4.985;-8.44;-0.298;1.01;-0.451;0.172;-0.079;1.642;-0.478;17.9;0.8;36.7;51.16;4562;2018-04-16 23:26:03:335
-4.397;-9.681;-0.832;-4.985;-8.44;-0.298;1.01;-0.451;0.172;-0.079;1.642;-0.478;17.9;0.8;36.7;51.16;4573;2018-04-16 23:26:03:346
-4.397;-9.681;-0.832;-4.879;-8.495;-0.447;0.241;-1.964;-1.026;-0.011;1.312;-0.534;17.7;0.8;36.7;51.16;4583;2018-04-16 23:26:03:356
-4.794;-10.886;-1.562;-4.879;-8.495;-0.447;0.241;-1.964;-1.026;-0.128;1.111;-0.535;17.7;0.8;36.7;51.16;4593;2018-04-16 23:26:03:366
-4.81;-11.141;-1.948;-4.781;-8.543;-0.573;-0.029;-2.608;-1.259;-0.258;1.168;-0.535;17.4;0.8;36.8;51.16;4603;2018-04-16 23:26:03:376
-4.81;-11.141;-1.948;-4.781;-8.543;-0.573;-0.029;-2.608;-1.259;-0.258;1.168;-0.535;17.4;0.8;36.8;51.16;4613;2018-04-16 23:26:03:386
-4.705;-10.567;-2.066;-4.672;-8.589;-0.758;-0.032;-1.978;-1.308;-0.424;1.329;-0.534;17.1;0.7;36.7;51.16;4623;2018-04-16 23:26:03:396
-4.705;-10.567;-2.066;-4.672;-8.589;-0.758;-0.032;-1.978;-1.308;-0.487;1.349;-0.546;17.1;0.7;36.7;51.16;4633;2018-04-16 23:26:03:406
-4.747;-10.172;-3.026;-4.552;-8.632;-0.968;-0.194;-1.54;-2.059;-0.487;1.349;-0.546;16.7;0.6;36.7;51.16;4643;2018-04-16 23:26:03:416
-4.755;-10.265;-4.011;-4.552;-8.632;-0.968;-0.194;-1.54;-2.059;-0.659;1.273;-0.61;16.7;0.6;36.7;51.16;4653;2018-04-16 23:26:03:426
-4.755;-10.265;-4.011;-4.418;-8.67;-1.213;-0.37;-1.519;-2.849;-0.847;1.283;-0.616;16.3;0.5;36.6;51.16;4663;2018-04-16 23:26:03:436
-4.78;-9.908;-3.784;-4.418;-8.67;-1.213;-0.37;-1.519;-2.849;-0.847;1.283;-0.616;16.3;0.5;36.6;51.16;4672;2018-04-16 23:26:03:445
-4.78;-9.908;-3.784;-4.29;-8.69;-1.498;-0.408;-0.797;-1.26;-1.114;1.048;-0.528;15.9;0.4;36.6;51.16;4682;2018-04-16 23:26:03:455
-4.72;-8.972;-1.262;-4.29;-8.69;-1.498;-0.408;-0.797;-1.26;-1.087;0.839;-0.414;15.9;0.4;36.6;51.16;4692;2018-04-16 23:26:03:465
-4.72;-8.972;-1.262;-4.195;-8.69;-1.749;-0.304;0.339;1.722;-1.087;0.839;-0.414;15.3;0.2;36.6;51.16;4702;2018-04-16 23:26:03:475
-4.183;-7.61;0.362;-4.195;-8.69;-1.749;-0.304;0.339;1.722;-0.965;0.812;-0.294;15.3;0.2;36.6;51.16;4713;2018-04-16 23:26:03:486
-4.165;-6.74;0.473;-4.116;-8.678;-1.981;0.093;1.769;2.425;-0.962;0.755;-0.275;14.6;0.0;36.4;51.16;4722;2018-04-16 23:26:03:495
-4.165;-6.74;0.473;-4.116;-8.678;-1.981;0.093;1.769;2.425;-0.991;0.618;-0.286;14.6;0.0;36.4;51.16;4733;2018-04-16 23:26:03:506
-4.793;-6.785;-0.04;-4.046;-8.66;-2.193;-0.748;1.875;2.153;-0.957;0.447;-0.279;13.4;-0.6;36.3;51.16;4743;2018-04-16 23:26:03:516
-4.793;-6.785;-0.04;-4.046;-8.66;-2.193;-0.748;1.875;2.153;-0.852;0.222;-0.263;13.4;-0.6;36.3;51.16;4753;2018-04-16 23:26:03:526
-5.538;-7.854;-1.736;-4.009;-8.64;-2.334;-1.529;0.786;0.598;-0.724;0.023;-0.233;12.5;-0.9;36.2;51.16;4763;2018-04-16 23:26:03:536
-5.538;-7.854;-1.736;-4.009;-8.64;-2.334;-1.529;0.786;0.598;-0.724;0.023;-0.233;12.5;-0.9;36.2;51.16;4772;2018-04-16 23:26:03:545
-5.328;-8.552;-2.696;-3.991;-8.623;-2.425;-1.337;0.071;-0.271;-0.547;-0.156;-0.15;12.1;-1.6;36.3;51.16;4783;2018-04-16 23:26:03:556
-5.012;-8.505;-1.962;-3.987;-8.615;-2.462;-1.025;0.109;0.5;-0.5;-0.094;-0.11;12.0;-1.5;36.1;51.16;4792;2018-04-16 23:26:03:565
-5.012;-8.505;-1.962;-3.987;-8.615;-2.462;-1.025;0.109;0.5;-0.431;0.086;-0.092;12.0;-1.5;36.1;51.16;4803;2018-04-16 23:26:03:576
-3.968;-7.887;-0.706;-3.961;-8.605;-2.535;-0.007;0.719;1.829;-0.431;0.086;-0.092;11.5;-1.8;35.7;51.16;4813;2018-04-16 23:26:03:586
-3.968;-7.887;-0.706;-3.961;-8.605;-2.535;-0.007;0.719;1.829;-0.155;0.468;-0.181;11.5;-1.8;35.7;51.16;4822;2018-04-16 23:26:03:595
-4.102;-7.324;-1.237;-3.91;-8.616;-2.58;-0.193;1.292;1.343;0.035;0.404;-0.16;11.2;-1.9;36.0;51.26;4832;2018-04-16 23:26:03:605
-4.068;-6.92;-1.967;-3.91;-8.616;-2.58;-0.193;1.292;1.343;0.109;0.335;-0.108;11.2;-1.9;36.0;51.26;4842;2018-04-16 23:26:03:615
-4.068;-6.92;-1.967;-3.882;-8.628;-2.58;-0.041;1.726;0.786;0.109;0.335;-0.108;11.1;-2.0;36.2;51.26;4853;2018-04-16 23:26:03:626
-3.686;-6.845;-1.967;-3.882;-8.628;-2.58;-0.041;1.726;0.786;0.115;0.087;-0.071;11.1;-2.0;36.2;51.26;4863;2018-04-16 23:26:03:636
-3.686;-6.845;-1.967;-3.865;-8.64;-2.565;0.17;1.774;0.278;0.126;0.051;-0.081;10.7;-2.3;36.1;51.26;4873;2018-04-16 23:26:03:646
-3.761;-6.84;-2.528;-3.865;-8.64;-2.565;0.17;1.774;0.278;0.121;-0.032;-0.067;10.7;-2.3;36.1;51.26;4883;2018-04-16 23:26:03:656
-3.766;-6.786;-2.686;-3.86;-8.65;-2.539;0.071;1.83;-0.122;0.111;-0.126;-0.038;10.3;-2.6;35.9;51.26;4893;2018-04-16 23:26:03:666
-3.766;-6.786;-2.686;-3.86;-8.65;-2.539;0.071;1.83;-0.122;0.111;-0.209;-0.002;10.3;-2.6;35.9;51.26;4902;2018-04-16 23:26:03:675
-3.743;-6.523;-2.606;-3.875;-8.654;-2.501;0.131;2.131;-0.105;0.121;-0.296;0.046;9.9;-2.9;35.7;51.26;4913;2018-04-16 23:26:03:686
-3.7;-6.438;-2.543;-3.875;-8.654;-2.501;0.131;2.131;-0.105;0.142;-0.338;0.084;9.9;-2.9;35.7;51.26;4922;2018-04-16 23:26:03:695
-3.7;-6.438;-2.543;-3.906;-8.655;-2.45;0.268;2.223;-0.01;0.142;-0.338;0.084;9.6;-3.1;35.7;51.26;4933;2018-04-16 23:26:03:706
-3.478;-6.415;-2.259;-3.906;-8.655;-2.45;0.268;2.223;-0.01;0.197;-0.373;0.144;9.6;-3.1;35.7;51.26;4943;2018-04-16 23:26:03:716
-3.478;-6.415;-2.259;-3.951;-8.653;-2.384;0.611;2.229;0.23;0.197;-0.373;0.144;9.4;-3.4;35.5;51.26;4953;2018-04-16 23:26:03:726
-3.3;-6.462;-2.191;-3.951;-8.653;-2.384;0.611;2.229;0.23;0.254;-0.348;0.171;9.4;-3.4;35.5;51.26;4963;2018-04-16 23:26:03:736
-3.4;-6.772;-2.753;-3.999;-8.652;-2.308;0.68;2.036;-0.12;0.291;-0.352;0.188;9.2;-3.6;35.4;51.26;4973;2018-04-16 23:26:03:746
-3.4;-6.772;-2.753;-3.999;-8.652;-2.308;0.68;2.036;-0.12;0.291;-0.352;0.188;9.2;-3.6;35.4;51.26;4983;2018-04-16 23:26:03:756
-3.628;-7.519;-3.949;-4.061;-8.644;-2.224;0.433;1.125;-1.725;0.28;-0.561;0.258;9.1;-3.8;35.3;51.26;4992;2018-04-16 23:26:03:765
-3.614;-8.298;-4.173;-4.061;-8.644;-2.224;0.433;1.125;-1.725;0.244;-0.71;0.314;9.1;-3.8;35.3;51.26;5002;2018-04-16 23:26:03:775
-3.614;-8.298;-4.173;-4.149;-8.624;-2.14;0.565;0.037;-2.013;0.197;-0.804;0.371;9.1;-3.8;35.4;51.26;5013;2018-04-16 23:26:03:786
-3.436;-9.23;-4.123;-4.149;-8.624;-2.14;0.565;0.037;-2.013;0.127;-0.793;0.407;9.1;-3.8;35.4;51.26;5022;2018-04-16 23:26:03:795
-3.436;-9.23;-4.123;-4.25;-8.593;-2.065;1.114;-1.174;-2.142;0.033;-0.694;0.407;9.1;-3.8;35.5;51.26;5032;2018-04-16 23:26:03:805
-2.829;-9.98;-4.31;-4.25;-8.593;-2.065;1.114;-1.174;-2.142;-0.087;-0.574;0.368;9.1;-3.8;35.5;51.26;5043;2018-04-16 23:26:03:816
-2.54;-9.847;-4.539;-4.328;-8.559;-2.044;1.745;-1.37;-2.434;-0.198;-0.479;0.296;9.2;-3.8;35.5;51.26;5053;2018-04-16 23:26:03:826
-2.54;-9.847;-4.539;-4.328;-8.559;-2.044;1.745;-1.37;-2.434;-0.198;-0.479;0.296;9.2;-3.8;35.5;51.26;5062;2018-04-16 23:26:03:835
-2.395;-9.294;-4.642;-4.375;-8.532;-2.058;1.979;-0.762;-2.585;-0.316;-0.462;0.134;9.3;-3.7;35.4;51.26;5073;2018-04-16 23:26:03:846
-2.395;-9.294;-4.642;-4.375;-8.532;-2.058;1.979;-0.762;-2.585;-0.297;-0.542;0.088;9.3;-3.7;35.4;51.26;5082;2018-04-16 23:26:03:855
-2.207;-8.577;-4.393;-4.397;-8.518;-2.069;2.19;-0.06;-2.324;-0.236;-0.704;0.059;9.4;-3.6;35.4;51.26;5093;2018-04-16 23:26:03:866
-2.069;-8.188;-3.661;-4.397;-8.518;-2.069;2.19;-0.06;-2.324;-0.167;-0.764;0.049;9.4;-3.6;35.4;51.26;5103;2018-04-16 23:26:03:876
-2.069;-8.188;-3.661;-4.424;-8.512;-2.034;2.212;0.347;-1.305;-0.046;-0.778;0.031;9.6;-3.6;35.4;51.26;5112;2018-04-16 23:26:03:885
-2.586;-8.23;-3.001;-4.424;-8.512;-2.034;2.212;0.347;-1.305;-0.046;-0.778;0.031;9.6;-3.6;35.4;51.26;5123;2018-04-16 23:26:03:896
-3.067;-8.428;-2.77;-4.446;-8.521;-1.947;1.379;0.094;-0.823;0.206;-0.772;-0.016;9.7;-3.4;35.5;51.26;5133;2018-04-16 23:26:03:906
-3.067;-8.428;-2.77;-4.446;-8.521;-1.947;1.379;0.094;-0.823;0.263;-0.677;-0.027;9.7;-3.4;35.5;51.26;5143;2018-04-16 23:26:03:916
-5.248;-10.153;-2.5;-4.467;-8.533;-1.846;-0.781;-1.62;-0.654;0.2;-0.546;0.013;9.9;-3.3;35.4;50.8;5152;2018-04-16 23:26:03:925
-5.248;-10.153;-2.5;-4.467;-8.533;-1.846;-0.781;-1.62;-0.654;0.2;-0.546;0.013;9.9;-3.3;35.4;50.8;5163;2018-04-16 23:26:03:936
-7.408;-11.553;-3.106;-4.49;-8.532;-1.79;-2.917;-3.021;-1.316;0.038;-0.397;0.056;10.2;-3.2;35.5;50.8;5172;2018-04-16 23:26:03:945
-7.749;-11.9;-4.055;-4.49;-8.532;-1.79;-2.917;-3.021;-1.316;-0.082;-0.359;0.054;10.2;-3.2;35.5;50.8;5183;2018-04-16 23:26:03:956
-7.749;-11.9;-4.055;-4.507;-8.525;-1.784;-2.765;-3.54;-2.686;-0.217;-0.349;-0.004;10.5;-3.1;35.6;50.8;5193;2018-04-16 23:26:03:966
-5.91;-12.276;-5.223;-4.507;-8.525;-1.784;-2.765;-3.54;-2.686;-0.33;-0.305;-0.128;10.5;-3.1;35.6;50.8;5203;2018-04-16 23:26:03:976
-5.91;-12.276;-5.223;-4.479;-8.529;-1.833;0.62;-3.938;-4.494;-0.456;-0.099;-0.294;10.7;-3.0;35.6;50.8;5213;2018-04-16 23:26:03:986
-1.204;-12.588;-5.459;-4.479;-8.529;-1.833;0.62;-3.938;-4.494;-0.619;0.253;-0.513;10.7;-3.0;35.6;50.8;5223;2018-04-16 23:26:03:996
-1.204;-12.588;-5.459;-4.345;-8.566;-1.979;4.878;-3.373;1.033;-0.619;0.253;-0.513;11.0;-2.9;35.7;50.8;5232;2018-04-16 23:26:04:005
-0.591;-8.546;1.731;-4.345;-8.566;-1.979;4.878;-3.373;1.033;-0.094;1.09;-0.99;11.0;-2.9;35.7;50.8;5242;2018-04-16 23:26:04:015
-0.591;-8.546;1.731;-4.146;-8.651;-2.037;3.211;4.848;4.422;0.374;0.425;-0.841;11.3;-2.9;35.8;50.8;5253;2018-04-16 23:26:04:026
-2.108;-0.937;2.713;-4.146;-8.651;-2.037;3.211;4.848;4.422;0.374;0.425;-0.841;11.3;-2.9;35.8;50.8;5263;2018-04-16 23:26:04:036
-2.108;-0.937;2.713;-4.019;-8.725;-1.975;0.354;8.571;4.023;0.238;-0.33;-0.721;11.6;-2.9;35.8;50.8;5273;2018-04-16 23:26:04:046
-5.847;-1.389;0.661;-4.019;-8.725;-1.975;0.354;8.571;4.023;0.121;-0.461;-0.672;11.6;-2.9;35.8;50.8;5283;2018-04-16 23:26:04:056
-9.234;-5.162;-3.997;-3.951;-8.767;-1.922;-4.287;5.003;-0.561;0.126;-0.341;-0.53;11.7;-2.8;35.8;50.8;5293;2018-04-16 23:26:04:066
-9.234;-5.162;-3.997;-3.951;-8.767;-1.922;-4.287;5.003;-0.561;0.184;-0.42;-0.211;11.7;-2.8;35.8;50.8;5304;2018-04-16 23:26:04:077
-9.973;-9.079;-2.733;-3.973;-8.777;-1.833;-6.0;-0.302;-0.9;0.184;-0.42;-0.211;11.9;-2.8;35.8;50.8;5313;2018-04-16 23:26:04:086
-9.973;-9.079;-2.733;-3.973;-8.777;-1.833;-6.0;-0.302;-0.9;0.544;-0.753;0.476;11.9;-2.8;35.8;50.8;5322;2018-04-16 23:26:04:095
-7.547;-11.248;1.134;-4.077;-8.761;-1.671;-4.753;-1.607;1.364;0.902;-0.099;0.437;12.1;-2.8;35.7;50.8;5333;2018-04-16 23:26:04:106
-7.547;-11.248;1.134;-4.077;-8.761;-1.671;-4.753;-1.607;1.364;0.902;-0.099;0.437;12.1;-2.8;35.7;50.8;5342;2018-04-16 23:26:04:115
-6.059;-11.088;0.828;-4.121;-8.769;-1.512;-1.937;-2.318;2.34;1.042;0.343;0.219;12.2;-2.8;35.7;50.8;5353;2018-04-16 23:26:04:126
-6.059;-11.088;0.828;-4.121;-8.769;-1.512;-1.937;-2.318;2.34;1.003;0.369;0.187;12.2;-2.8;35.7;50.8;5362;2018-04-16 23:26:04:135
-5.023;-8.59;0.541;-4.156;-8.777;-1.363;-0.867;0.187;1.905;0.903;0.28;0.275;12.4;-2.7;35.6;50.8;5373;2018-04-16 23:26:04:146
-4.817;-7.707;0.702;-4.185;-8.772;-1.304;-0.632;1.065;2.006;0.753;0.272;0.345;12.4;-2.6;35.6;50.8;5383;2018-04-16 23:26:04:156
-4.817;-7.707;0.702;-4.185;-8.772;-1.304;-0.632;1.065;2.006;0.657;0.331;0.371;12.4;-2.6;35.6;50.8;5393;2018-04-16 23:26:04:166
-5.12;-7.384;-0.345;-4.251;-8.752;-1.225;-0.869;1.368;0.88;0.657;0.331;0.371;12.5;-2.4;35.5;50.8;5402;2018-04-16 23:26:04:175
-5.455;-7.894;-1.03;-4.251;-8.752;-1.225;-0.869;1.368;0.88;0.384;0.23;0.536;12.5;-2.4;35.5;50.8;5413;2018-04-16 23:26:04:186
-5.455;-7.894;-1.03;-4.361;-8.704;-1.182;-1.16;0.526;0.242;0.221;0.035;0.64;12.6;-2.2;35.4;50.8;5422;2018-04-16 23:26:04:195
-5.498;-8.666;-0.591;-4.361;-8.704;-1.182;-1.16;0.526;0.242;0.133;-0.222;0.728;12.6;-2.2;35.4;50.8;5432;2018-04-16 23:26:04:205
-5.498;-8.666;-0.591;-4.503;-8.639;-1.123;-0.862;-0.391;1.193;0.134;-0.509;0.776;12.6;-2.0;35.4;50.8;5442;2018-04-16 23:26:04:215
-5.204;-9.082;0.383;-4.503;-8.639;-1.123;-0.862;-0.391;1.193;0.176;-0.821;0.733;12.6;-2.0;35.4;50.8;5453;2018-04-16 23:26:04:226
-4.967;-9.157;0.547;-4.647;-8.576;-1.015;-0.419;-0.58;1.496;0.154;-0.964;0.687;12.7;-1.7;35.3;50.8;5462;2018-04-16 23:26:04:235
-4.769;-9.182;0.582;-4.713;-8.547;-0.953;-0.133;-0.616;1.548;0.114;-1.079;0.64;12.7;-1.5;35.3;50.8;5473;2018-04-16 23:26:04:246
-4.769;-9.182;0.582;-4.713;-8.547;-0.953;-0.133;-0.616;1.548;0.114;-1.079;0.64;12.7;-1.5;35.3;50.8;5483;2018-04-16 23:26:04:256
-4.166;-9.003;0.381;-4.836;-8.493;-0.813;0.67;-0.511;1.194;0.083;-1.282;0.608;12.8;-1.3;35.3;56.23;5492;2018-04-16 23:26:04:265
-3.886;-9.129;0.085;-4.836;-8.493;-0.813;0.67;-0.511;1.194;0.106;-1.47;0.556;12.8;-1.3;35.3;56.23;5502;2018-04-16 23:26:04:275
-3.886;-9.129;0.085;-4.94;-8.448;-0.629;1.257;-0.775;0.671;0.184;-1.638;0.524;12.8;-1.2;35.2;56.23;5512;2018-04-16 23:26:04:285
-3.233;-9.349;0.084;-4.94;-8.448;-0.629;1.257;-0.775;0.671;0.29;-1.718;0.498;12.8;-1.2;35.2;56.23;5522;2018-04-16 23:26:04:295
-3.238;-9.58;0.411;-5.018;-8.416;-0.402;1.835;-1.156;0.736;0.461;-1.418;0.336;12.9;-0.9;35.2;56.23;5533;2018-04-16 23:26:04:306
-3.238;-9.58;0.411;-5.038;-8.408;-0.294;1.835;-1.156;0.736;0.461;-1.418;0.336;12.9;-0.9;35.2;56.23;5543;2018-04-16 23:26:04:316
-3.395;-9.343;0.971;-5.038;-8.408;-0.294;1.651;-0.937;1.169;0.657;-0.713;0.15;13.1;-0.5;35.1;56.23;5553;2018-04-16 23:26:04:326
-3.724;-9.268;1.504;-5.042;-8.41;-0.116;1.651;-0.937;1.169;0.812;-0.178;0.006;13.1;-0.5;35.1;56.23;5563;2018-04-16 23:26:04:336
-3.724;-9.268;1.504;-5.029;-8.419;-0.042;1.093;-0.842;1.796;0.987;0.259;-0.112;13.4;-0.2;35.0;56.23;5573;2018-04-16 23:26:04:346
-4.286;-9.099;2.157;-5.029;-8.419;-0.042;1.093;-0.842;1.796;1.152;0.616;-0.173;13.4;-0.2;35.0;56.23;5583;2018-04-16 23:26:04:356
-4.472;-8.8;1.1;-4.997;-8.438;0.096;0.553;-0.427;1.327;1.317;1.042;-0.142;13.6;0.1;35.0;56.23;5593;2018-04-16 23:26:04:366
-4.472;-8.8;1.1;-4.997;-8.438;0.096;0.553;-0.427;1.327;1.317;1.042;-0.142;13.6;0.1;35.0;56.23;5602;2018-04-16 23:26:04:375
-4.088;-8.428;0.06;-4.979;-8.446;0.208;0.891;0.018;-0.148;1.232;1.026;-0.067;13.9;0.5;35.0;56.23;5613;2018-04-16 23:26:04:386
-4.088;-8.428;0.06;-4.979;-8.446;0.208;0.891;0.018;-0.148;1.097;0.776;-0.043;13.9;0.5;35.0;56.23;5623;2018-04-16 23:26:04:396
-4.19;-8.541;-0.503;-4.974;-8.446;0.311;0.784;-0.096;-0.814;1.097;0.776;-0.043;14.1;1.0;34.9;56.23;5633;2018-04-16 23:26:04:406
-4.19;-8.541;-0.503;-4.974;-8.446;0.311;0.784;-0.096;-0.814;0.704;0.186;0.087;14.1;1.0;34.9;56.23;5642;2018-04-16 23:26:04:415
-3.929;-8.769;-0.569;-4.981;-8.438;0.395;1.052;-0.33;-0.964;0.464;-0.065;0.088;14.2;1.4;34.9;56.23;5653;2018-04-16 23:26:04:426
-3.827;-8.758;-0.402;-4.981;-8.438;0.395;1.052;-0.33;-0.964;0.186;-0.417;0.092;14.2;1.4;34.9;56.23;5663;2018-04-16 23:26:04:436
-3.827;-8.758;-0.402;-4.983;-8.434;0.464;1.26;-0.169;-0.822;0.186;-0.417;0.092;14.4;1.8;34.9;56.23;5673;2018-04-16 23:26:04:446
-3.694;-8.441;-0.263;-4.983;-8.434;0.464;1.26;-0.169;-0.822;0.043;-0.894;0.064;14.4;1.8;34.9;56.23;5683;2018-04-16 23:26:04:456
-3.88;-8.406;-0.043;-4.976;-8.431;0.566;1.1;-0.003;-0.659;0.038;-1.09;0.046;14.5;2.1;34.9;56.23;5693;2018-04-16 23:26:04:466
-3.88;-8.406;-0.043;-4.976;-8.431;0.566;1.1;-0.003;-0.659;0.038;-1.09;0.046;14.5;2.1;34.9;56.23;5703;2018-04-16 23:26:04:476
-3.882;-8.291;0.224;-4.962;-8.43;0.693;1.08;0.139;-0.469;0.037;-1.267;0.031;14.7;2.4;35.0;56.23;5713;2018-04-16 23:26:04:486
-3.882;-8.291;0.224;-4.962;-8.43;0.693;1.08;0.139;-0.469;0.037;-1.267;0.031;14.7;2.4;35.0;56.23;5723;2018-04-16 23:26:04:496
-4.004;-8.146;0.724;-4.949;-8.428;0.797;1.06;0.405;0.017;-0.04;-1.115;0.039;15.0;2.8;35.0;56.23;5733;2018-04-16 23:26:04:506
-4.004;-8.146;0.724;-4.949;-8.428;0.797;1.06;0.405;0.017;-0.057;-0.874;0.032;15.0;2.8;35.0;56.23;5742;2018-04-16 23:26:04:515
-3.824;-8.029;1.55;-4.935;-8.429;0.881;1.111;0.4;0.67;0.049;-0.811;-0.016;15.3;3.1;35.0;56.23;5753;2018-04-16 23:26:04:526
-3.844;-8.552;2.259;-4.935;-8.429;0.881;1.111;0.4;0.67;0.232;-0.689;-0.051;15.3;3.1;35.0;56.23;5762;2018-04-16 23:26:04:535
-3.844;-8.552;2.259;-4.904;-8.433;1.005;1.109;-0.212;1.296;0.232;-0.689;-0.051;15.6;3.4;35.0;56.23;5774;2018-04-16 23:26:04:547
-3.737;-8.717;2.33;-4.904;-8.433;1.005;1.109;-0.212;1.296;0.566;-0.194;-0.101;15.6;3.4;35.0;56.23;5783;2018-04-16 23:26:04:556
-4.347;-8.466;1.738;-4.875;-8.434;1.126;0.685;-0.155;0.844;0.696;0.11;-0.128;15.8;3.7;34.9;56.23;5792;2018-04-16 23:26:04:565
-4.347;-8.466;1.738;-4.875;-8.434;1.126;0.685;-0.155;0.844;0.88;0.315;-0.127;15.8;3.7;34.9;56.23;5803;2018-04-16 23:26:04:576
-4.946;-8.089;1.373;-4.86;-8.423;1.267;-0.086;0.334;0.106;1.159;0.353;-0.144;16.1;4.0;35.0;52.83;5812;2018-04-16 23:26:04:585
-4.946;-8.089;1.373;-4.86;-8.423;1.267;-0.086;0.334;0.106;1.414;0.467;-0.15;16.1;4.0;35.0;52.83;5823;2018-04-16 23:26:04:596
-5.333;-8.516;0.848;-4.859;-8.394;1.449;-0.474;-0.122;-0.601;1.498;0.773;-0.097;16.3;4.4;34.9;52.83;5832;2018-04-16 23:26:04:605
-5.333;-8.516;0.848;-4.859;-8.394;1.449;-0.474;-0.122;-0.601;1.411;1.111;-0.056;16.3;4.4;34.9;52.83;5843;2018-04-16 23:26:04:616
-5.209;-8.283;-0.717;-4.891;-8.357;1.551;-0.318;0.075;-2.268;1.355;1.159;-0.028;16.3;4.8;35.0;52.83;5853;2018-04-16 23:26:04:626
-5.043;-8.983;-0.988;-4.891;-8.357;1.551;-0.318;0.075;-2.268;1.426;0.871;0.029;16.3;4.8;35.0;52.83;5863;2018-04-16 23:26:04:636
-4.666;-9.363;-0.704;-4.923;-8.306;1.716;0.065;-0.973;-2.533;1.489;0.492;0.09;16.3;5.2;34.9;52.83;5872;2018-04-16 23:26:04:645
-4.666;-9.363;-0.704;-4.923;-8.306;1.716;0.065;-0.973;-2.533;1.489;0.492;0.09;16.3;5.2;34.9;52.83;5883;2018-04-16 23:26:04:656
-3.889;-9.159;-0.794;-4.953;-8.25;1.892;1.063;-0.909;-2.686;1.203;0.259;0.167;16.3;5.7;34.9;52.83;5892;2018-04-16 23:26:04:665
-3.889;-9.159;-0.794;-4.953;-8.25;1.892;1.063;-0.909;-2.686;0.947;0.217;0.176;16.3;5.7;34.9;52.83;5903;2018-04-16 23:26:04:676
-3.401;-8.1;-1.682;-4.979;-8.206;2.008;1.578;0.107;-3.69;0.772;-0.038;0.178;16.3;6.1;34.7;52.83;5912;2018-04-16 23:26:04:685
-3.401;-8.1;-1.682;-4.979;-8.206;2.008;1.578;0.107;-3.69;0.772;-0.038;0.178;16.3;6.1;34.7;52.83;5922;2018-04-16 23:26:04:695
-4.339;-8.253;-0.88;-4.965;-8.177;2.158;0.626;-0.076;-3.038;0.597;-0.767;0.034;16.3;6.5;34.6;52.83;5932;2018-04-16 23:26:04:705
-4.339;-8.253;-0.88;-4.965;-8.177;2.158;0.626;-0.076;-3.038;0.443;-0.822;0.028;16.3;6.5;34.6;52.83;5943;2018-04-16 23:26:04:716
-5.163;-8.564;0.366;-4.941;-8.159;2.277;-0.222;-0.405;-1.91;0.376;-0.606;0.051;16.4;7.0;34.6;52.83;5953;2018-04-16 23:26:04:726
-5.163;-8.564;0.366;-4.941;-8.159;2.277;-0.222;-0.405;-1.91;0.349;-0.243;0.077;16.4;7.0;34.6;52.83;5962;2018-04-16 23:26:04:735
-5.092;-8.308;1.288;-4.956;-8.137;2.324;-0.137;-0.171;-1.036;0.348;0.216;0.09;16.5;7.5;34.5;52.83;5972;2018-04-16 23:26:04:745
-5.092;-8.308;1.288;-4.956;-8.137;2.324;-0.137;-0.171;-1.036;0.348;0.216;0.09;16.5;7.5;34.5;52.83;5982;2018-04-16 23:26:04:755
-4.612;-9.39;1.589;-5.012;-8.116;2.274;0.4;-1.274;-0.685;0.268;1.167;0.094;16.6;7.9;34.3;52.83;5993;2018-04-16 23:26:04:766
-4.612;-9.39;1.589;-5.012;-8.116;2.274;0.4;-1.274;-0.685;0.17;1.517;0.079;16.6;7.9;34.3;52.83;6002;2018-04-16 23:26:04:775
-4.216;-10.651;1.068;-5.093;-8.105;2.131;0.876;-2.545;-1.063;0.17;1.517;0.079;16.6;8.4;34.1;52.83;6014;2018-04-16 23:26:04:787
-3.93;-10.799;0.618;-5.093;-8.105;2.131;0.876;-2.545;-1.063;0.048;1.552;0.016;16.6;8.4;34.1;52.83;6022;2018-04-16 23:26:04:795
-3.93;-10.799;0.618;-5.148;-8.101;2.008;1.412;-2.647;-1.352;0.142;1.142;-0.011;16.5;8.8;33.8;52.83;6033;2018-04-16 23:26:04:806
-3.534;-10.885;0.913;-5.148;-8.101;2.008;1.412;-2.647;-1.352;0.216;0.709;-0.071;16.5;8.8;33.8;52.83;6043;2018-04-16 23:26:04:816
-3.534;-10.885;0.913;-5.151;-8.105;1.987;1.797;-2.878;-0.856;0.227;0.396;-0.162;16.3;9.2;33.7;52.83;6052;2018-04-16 23:26:04:825
-3.237;-11.149;1.174;-5.151;-8.105;1.987;1.797;-2.878;-0.856;0.195;0.159;-0.248;16.3;9.2;33.7;52.83;6063;2018-04-16 23:26:04:836
-3.237;-11.149;1.174;-5.108;-8.126;2.012;2.041;-3.168;-1.022;0.17;-0.084;-0.296;16.2;9.6;33.5;52.83;6072;2018-04-16 23:26:04:845
-2.944;-11.508;0.806;-5.108;-8.126;2.012;2.041;-3.168;-1.022;0.122;-0.343;-0.338;16.2;9.6;33.5;52.83;6083;2018-04-16 23:26:04:856
-2.808;-11.721;0.7;-5.028;-8.16;2.074;2.242;-3.51;-1.368;0.038;-0.621;-0.396;15.9;10.1;33.4;52.83;6092;2018-04-16 23:26:04:865
-2.808;-11.721;0.7;-5.028;-8.16;2.074;2.242;-3.51;-1.368;-0.092;-0.907;-0.481;15.9;10.1;33.4;52.83;6103;2018-04-16 23:26:04:876
-3.873;-11.365;1.35;-4.901;-8.218;2.145;1.029;-3.147;-0.795;-0.264;-1.123;-0.533;15.7;10.6;33.2;52.83;6113;2018-04-16 23:26:04:886
-3.873;-11.365;1.35;-4.901;-8.218;2.145;1.029;-3.147;-0.795;-0.529;-1.086;-0.494;15.7;10.6;33.2;52.83;6123;2018-04-16 23:26:04:896
-5.013;-9.826;1.604;-4.772;-8.29;2.161;-0.241;-1.536;-0.557;-0.72;-0.876;-0.522;15.6;11.0;33.0;52.5;6132;2018-04-16 23:26:04:905
-5.013;-9.826;1.604;-4.772;-8.29;2.161;-0.241;-1.536;-0.557;-0.72;-0.876;-0.522;15.6;11.0;33.0;52.5;6143;2018-04-16 23:26:04:916
-7.894;-8.049;-4.696;-4.643;-8.381;2.09;-3.25;0.332;-6.787;-0.888;-0.779;-0.619;15.4;11.3;32.8;52.5;6152;2018-04-16 23:26:04:925
-10.714;-7.817;-5.34;-4.643;-8.381;2.09;-3.25;0.332;-6.787;-0.699;-1.554;-0.702;15.4;11.3;32.8;52.5;6163;2018-04-16 23:26:04:936
-9.908;-7.474;-2.318;-4.479;-8.469;2.096;-6.21;0.787;-5.969;-0.885;-1.519;-0.495;15.4;11.6;32.7;52.5;6173;2018-04-16 23:26:04:946
-9.908;-7.474;-2.318;-4.467;-8.506;1.968;-4.161;1.24;-2.83;-1.596;-0.186;-0.101;15.4;11.7;32.7;52.5;6182;2018-04-16 23:26:04:955
-6.065;-7.196;1.926;-4.467;-8.506;1.968;-4.161;1.24;-2.83;-1.596;-0.186;-0.101;15.4;11.7;32.7;52.5;6193;2018-04-16 23:26:04:966
-4.837;-7.499;3.632;-4.559;-8.577;1.348;-0.379;1.178;2.07;-2.883;2.573;0.07;15.4;11.7;32.7;52.5;6203;2018-04-16 23:26:04:976
-4.837;-7.499;3.632;-4.559;-8.577;1.348;-0.379;1.178;2.07;-2.966;3.29;-0.071;15.4;11.7;32.7;52.5;6213;2018-04-16 23:26:04:986
-4.841;-8.226;3.539;-4.61;-8.636;0.581;-0.231;0.41;2.958;-2.745;3.186;-0.084;15.2;11.6;32.7;52.5;6222;2018-04-16 23:26:04:995
-4.841;-8.226;3.539;-4.61;-8.636;0.581;-0.231;0.41;2.958;-2.745;3.186;-0.084;15.2;11.6;32.7;52.5;6233;2018-04-16 23:26:05:006
-5.745;-9.719;3.377;-4.597;-8.662;-0.039;-1.147;-1.057;3.416;-2.197;2.055;-0.172;15.0;11.5;32.7;52.5;6242;2018-04-16 23:26:05:015
-5.745;-9.719;3.377;-4.597;-8.662;-0.039;-1.147;-1.057;3.416;-2.197;2.055;-0.172;15.0;11.5;32.7;52.5;6253;2018-04-16 23:26:05:026
-7.468;-10.643;5.222;-4.567;-8.665;-0.488;-2.901;-1.979;5.71;-1.605;1.572;-0.101;14.7;11.1;32.7;52.5;6263;2018-04-16 23:26:05:036
-7.638;-10.722;5.582;-4.556;-8.657;-0.685;-3.082;-2.065;6.267;-1.319;1.84;0.0;14.7;11.1;32.7;52.5;6273;2018-04-16 23:26:05:046
-7.638;-10.722;5.582;-4.556;-8.657;-0.685;-3.082;-2.065;6.267;-1.092;2.281;0.01;14.3;10.7;32.7;52.5;6283;2018-04-16 23:26:05:056
-6.122;-9.85;2.563;-4.504;-8.643;-1.085;-1.618;-1.206;3.648;-0.957;2.575;-0.161;14.3;10.7;32.7;52.5;6293;2018-04-16 23:26:05:066
-5.839;-9.965;-0.921;-4.504;-8.643;-1.085;-1.618;-1.206;3.648;-0.957;2.575;-0.161;13.0;9.5;32.8;52.5;6303;2018-04-16 23:26:05:076
-5.839;-9.965;-0.921;-4.432;-8.628;-1.446;-0.927;-1.933;-2.422;-0.91;2.004;-0.029;13.0;9.5;32.8;52.5;6313;2018-04-16 23:26:05:086
-3.701;-10.72;-4.249;-4.432;-8.628;-1.446;-0.927;-1.933;-2.422;-0.91;2.004;-0.029;11.1;8.1;32.9;52.5;6322;2018-04-16 23:26:05:095
-3.701;-10.72;-4.249;-4.444;-8.603;-1.549;2.728;-2.008;-1.057;-0.511;-0.74;0.009;11.1;8.1;32.9;52.5;6333;2018-04-16 23:26:05:106
-0.266;-11.082;-0.279;-4.444;-8.603;-1.549;2.728;-2.008;-1.057;-0.298;-0.461;-0.479;10.6;7.3;32.3;52.5;6343;2018-04-16 23:26:05:116
-0.266;-11.082;-0.279;-4.372;-8.635;-1.576;3.205;-2.887;2.765;-0.298;-0.461;-0.479;10.6;7.3;32.3;52.5;6352;2018-04-16 23:26:05:125
-2.157;-10.94;0.083;-4.266;-8.666;-1.696;3.205;-2.887;2.765;-0.325;2.1;-0.814;10.0;6.3;32.9;52.5;6363;2018-04-16 23:26:05:136
-3.31;-10.333;-1.213;-4.145;-8.697;-1.833;0.835;-1.637;0.62;-0.249;2.775;-0.847;9.6;5.9;33.5;52.5;6372;2018-04-16 23:26:05:145
-3.31;-10.333;-1.213;-4.145;-8.697;-1.833;0.835;-1.637;0.62;-0.249;2.775;-0.847;9.6;5.9;33.5;52.5;6383;2018-04-16 23:26:05:156
-4.778;-8.235;-1.347;-3.962;-8.743;-2.007;-0.816;0.508;0.661;-0.061;1.658;-0.53;8.3;5.1;32.5;52.5;6393;2018-04-16 23:26:05:166
-4.755;-7.496;-0.858;-3.915;-8.754;-2.051;-0.84;1.258;1.193;-0.176;0.742;-0.384;8.2;5.7;32.9;52.5;6403;2018-04-16 23:26:05:176
-4.755;-7.496;-0.858;-3.915;-8.754;-2.051;-0.84;1.258;1.193;-0.176;0.742;-0.384;8.2;5.7;32.9;52.5;6412;2018-04-16 23:26:05:185
-3.618;-6.528;2.089;-3.896;-8.743;-2.132;0.278;2.215;4.221;-0.965;-0.943;-0.244;7.0;4.6;32.9;52.5;6423;2018-04-16 23:26:05:196
-3.618;-6.528;2.089;-3.896;-8.743;-2.132;0.278;2.215;4.221;-1.344;-0.867;-0.349;7.0;4.6;32.9;52.5;6432;2018-04-16 23:26:05:205
-4.39;-5.977;1.007;-3.852;-8.708;-2.345;-0.537;2.731;3.351;-1.643;-0.362;-0.463;7.2;4.3;32.5;52.5;6443;2018-04-16 23:26:05:216
-4.39;-5.977;1.007;-3.852;-8.708;-2.345;-0.537;2.731;3.351;-1.87;-0.015;-0.468;7.2;4.3;32.5;55.33;6453;2018-04-16 23:26:05:226
-5.839;-4.841;-1.238;-3.781;-8.646;-2.67;-2.059;3.805;1.432;-1.908;-0.053;-0.386;6.9;3.9;33.7;55.33;6462;2018-04-16 23:26:05:235
-6.094;-4.13;-1.415;-3.781;-8.646;-2.67;-2.059;3.805;1.432;-1.772;-0.319;-0.272;6.9;3.9;33.7;55.33;6473;2018-04-16 23:26:05:246
-6.094;-4.13;-1.415;-3.767;-8.57;-2.923;-2.305;4.541;1.77;-1.554;-0.56;-0.187;6.9;3.2;32.6;55.33;6483;2018-04-16 23:26:05:256
-5.96;-4.035;-0.634;-3.782;-8.536;-2.999;-2.178;4.501;2.364;-1.188;-0.66;-0.051;7.2;3.2;32.8;55.33;6493;2018-04-16 23:26:05:266
-5.96;-4.035;-0.634;-3.782;-8.536;-2.999;-2.178;4.501;2.364;-1.188;-0.66;-0.051;7.2;3.2;32.8;55.33;6503;2018-04-16 23:26:05:276
-5.037;-4.257;-0.256;-3.824;-8.485;-3.091;-1.213;4.228;2.834;-0.626;-0.437;0.088;7.2;3.3;33.3;55.33;6512;2018-04-16 23:26:05:285
-5.037;-4.257;-0.256;-3.824;-8.485;-3.091;-1.213;4.228;2.834;-0.626;-0.437;0.088;7.2;3.3;33.3;55.33;6523;2018-04-16 23:26:05:296
-3.976;-4.723;0.148;-3.865;-8.457;-3.118;-0.111;3.734;3.266;-0.132;-0.132;0.172;7.1;3.3;33.2;55.33;6532;2018-04-16 23:26:05:305
-3.976;-4.723;0.148;-3.865;-8.457;-3.118;-0.111;3.734;3.266;0.16;0.005;0.208;7.1;3.3;33.2;55.33;6543;2018-04-16 23:26:05:316
-3.334;-4.513;-0.685;-3.906;-8.456;-3.068;0.572;3.943;2.383;0.428;0.004;0.281;6.8;3.1;33.1;55.33;6553;2018-04-16 23:26:05:326
-3.334;-4.513;-0.685;-3.906;-8.456;-3.068;0.572;3.943;2.383;0.428;0.004;0.281;6.8;3.1;33.1;55.33;6562;2018-04-16 23:26:05:335
-2.319;-4.247;-1.106;-3.988;-8.464;-2.936;1.207;4.224;2.119;0.815;-0.143;0.498;6.5;2.6;33.2;55.33;6572;2018-04-16 23:26:05:345
-2.319;-4.247;-1.106;-3.988;-8.464;-2.936;1.207;4.224;2.119;0.913;-0.314;0.596;6.5;2.6;33.2;55.33;6582;2018-04-16 23:26:05:355
-2.02;-5.386;-2.102;-4.122;-8.464;-2.746;2.102;3.078;0.644;0.913;-0.314;0.596;6.2;2.3;33.2;55.33;6593;2018-04-16 23:26:05:366
-2.02;-5.386;-2.102;-4.122;-8.464;-2.746;2.102;3.078;0.644;0.815;-0.795;0.776;6.2;2.3;33.2;55.33;6603;2018-04-16 23:26:05:376
-1.915;-7.033;-3.816;-4.301;-8.437;-2.548;2.386;1.404;-1.268;0.539;-1.09;0.765;6.1;2.1;33.2;55.33;6613;2018-04-16 23:26:05:386
-1.915;-7.033;-3.816;-4.301;-8.437;-2.548;2.386;1.404;-1.268;0.539;-1.09;0.765;6.1;2.1;33.2;55.33;6623;2018-04-16 23:26:05:396
-2.103;-9.77;-5.993;-4.456;-8.403;-2.388;2.353;-1.366;-3.605;0.219;-1.516;0.48;6.1;1.9;33.1;55.33;6633;2018-04-16 23:26:05:406
-3.275;-13.428;-7.314;-4.456;-8.403;-2.388;2.353;-1.366;-3.605;-0.188;-1.913;-0.022;6.1;1.9;33.1;55.33;6643;2018-04-16 23:26:05:416
-3.275;-13.428;-7.314;-4.541;-8.395;-2.251;1.266;-5.033;-5.063;-0.188;-1.913;-0.022;6.1;1.8;33.2;55.33;6652;2018-04-16 23:26:05:425
-2.879;-16.685;-7.666;-4.541;-8.395;-2.251;1.266;-5.033;-5.063;-0.698;-1.701;-0.402;6.1;1.8;33.2;55.33;6662;2018-04-16 23:26:05:435
-2.879;-16.685;-7.666;-4.527;-8.404;-2.248;2.819;-7.884;-5.143;-0.853;-1.246;-0.542;6.2;1.7;33.2;55.33;6673;2018-04-16 23:26:05:446
-0.59;-14.621;-7.086;-4.527;-8.404;-2.248;2.819;-7.884;-5.143;-0.853;-1.246;-0.542;6.2;1.7;33.2;55.33;6682;2018-04-16 23:26:05:455
-1.183;-11.963;-6.651;-4.464;-8.431;-2.269;3.654;-4.101;-4.588;-0.418;-0.707;-0.616;6.4;1.5;33.3;55.33;6692;2018-04-16 23:26:05:465
-1.183;-11.963;-6.651;-4.464;-8.431;-2.269;3.654;-4.101;-4.588;0.092;0.002;-0.701;6.4;1.5;33.3;55.33;6703;2018-04-16 23:26:05:476
-3.202;-10.048;-6.387;-4.347;-8.497;-2.253;1.894;-2.197;-4.072;0.498;0.522;-0.681;6.7;1.4;33.4;55.33;6712;2018-04-16 23:26:05:485
-5.067;-9.205;-6.245;-4.347;-8.497;-2.253;1.894;-2.197;-4.072;0.933;0.677;-0.648;6.7;1.4;33.4;55.33;6723;2018-04-16 23:26:05:496
-5.067;-9.205;-6.245;-4.209;-8.592;-2.151;-1.531;-0.514;-4.506;0.933;0.677;-0.648;7.0;1.3;33.3;55.33;6733;2018-04-16 23:26:05:506
-6.952;-9.171;-5.653;-4.209;-8.592;-2.151;-1.531;-0.514;-4.506;1.268;0.161;-0.575;7.0;1.3;33.3;55.33;6742;2018-04-16 23:26:05:515
-6.952;-9.171;-5.653;-4.122;-8.686;-1.934;-3.652;-0.177;-2.061;1.075;-0.527;-0.516;7.2;1.3;33.4;55.33;6753;2018-04-16 23:26:05:526
-7.998;-8.703;-2.435;-4.122;-8.686;-1.934;-3.652;-0.177;-2.061;0.48;-1.062;-0.367;7.2;1.3;33.4;55.33;6763;2018-04-16 23:26:05:536
-7.726;-9.336;-1.064;-4.105;-8.722;-1.804;-3.622;-0.615;0.74;0.033;-1.018;-0.28;7.5;1.4;33.5;55.33;6773;2018-04-16 23:26:05:546
-7.63;-11.387;-1.553;-4.105;-8.722;-1.804;-3.622;-0.615;0.74;-0.28;-0.777;-0.166;7.5;1.4;33.5;55.33;6783;2018-04-16 23:26:05:556
-7.63;-11.387;-1.553;-4.114;-8.716;-1.812;-2.539;-3.5;-0.578;-0.483;-0.634;-0.024;7.8;1.6;33.7;55.51;6793;2018-04-16 23:26:05:566
-5.61;-13.725;-5.546;-4.114;-8.716;-1.812;-2.539;-3.5;-0.578;-0.483;-0.634;-0.024;7.8;1.6;33.7;55.51;6802;2018-04-16 23:26:05:575
-4.614;-14.031;-4.523;-4.083;-8.702;-1.943;-0.618;-5.957;-5.401;-1.048;0.171;-0.314;8.1;1.8;33.7;55.51;6813;2018-04-16 23:26:05:586
-4.614;-14.031;-4.523;-4.083;-8.702;-1.943;-0.618;-5.957;-5.401;-1.249;1.425;-0.4;8.1;1.8;33.7;55.51;6822;2018-04-16 23:26:05:595
-2.45;-5.103;3.503;-3.945;-8.689;-2.259;1.495;3.586;5.762;-0.753;2.149;-0.316;8.4;2.0;33.7;55.51;6833;2018-04-16 23:26:05:606
-0.836;0.117;4.981;-3.945;-8.689;-2.259;1.495;3.586;5.762;-0.281;2.0;-0.439;8.4;2.0;33.7;55.51;6843;2018-04-16 23:26:05:616
-0.836;0.117;4.981;-3.768;-8.726;-2.413;2.629;9.346;6.527;0.087;1.58;-0.645;8.6;2.1;33.6;55.51;6853;2018-04-16 23:26:05:626
-2.059;-0.011;2.427;-3.768;-8.726;-2.413;2.629;9.346;6.527;0.535;0.817;-0.782;8.6;2.1;33.6;55.51;6863;2018-04-16 23:26:05:636
-2.059;-0.011;2.427;-3.596;-8.808;-2.38;-0.406;7.163;4.208;0.535;0.817;-0.782;8.7;2.2;33.6;55.51;6872;2018-04-16 23:26:05:645
-6.321;-4.001;1.003;-3.596;-8.808;-2.38;-0.406;7.163;4.208;0.958;0.216;-0.464;8.7;2.2;33.6;55.51;6882;2018-04-16 23:26:05:655
-8.315;-7.044;1.021;-3.55;-8.875;-2.191;-3.727;3.628;3.03;1.206;-0.151;-0.043;8.8;2.4;33.7;55.51;6893;2018-04-16 23:26:05:666
-8.315;-7.044;1.021;-3.55;-8.875;-2.191;-3.727;3.628;3.03;1.206;-0.151;-0.043;8.8;2.4;33.7;55.51;6902;2018-04-16 23:26:05:675
-10.083;-10.643;1.259;-3.66;-8.892;-1.926;-6.423;-1.752;3.186;1.378;-0.265;0.704;8.9;2.5;33.6;55.51;6913;2018-04-16 23:26:05:686
-10.083;-10.643;1.259;-3.66;-8.892;-1.926;-6.423;-1.752;3.186;1.378;-0.265;0.704;8.9;2.5;33.6;55.51;6922;2018-04-16 23:26:05:695
-9.154;-11.007;0.49;-3.826;-8.865;-1.714;-5.329;-2.142;2.204;1.054;0.002;0.951;8.9;2.7;33.6;55.51;6933;2018-04-16 23:26:05:706
-9.154;-11.007;0.49;-3.826;-8.865;-1.714;-5.329;-2.142;2.204;1.054;0.002;0.951;8.9;2.7;33.6;55.51;6942;2018-04-16 23:26:05:715
-6.986;-9.17;-0.277;-3.982;-8.815;-1.614;-3.004;-0.355;1.337;0.468;0.138;0.893;8.9;2.8;33.6;55.51;6953;2018-04-16 23:26:05:726
-6.986;-9.17;-0.277;-3.982;-8.815;-1.614;-3.004;-0.355;1.337;0.206;0.066;0.932;8.9;2.8;33.6;55.51;6962;2018-04-16 23:26:05:735
-4.775;-7.517;-1.058;-4.159;-8.738;-1.587;-0.616;1.221;0.529;0.001;-0.166;0.974;8.8;3.0;33.6;55.51;6972;2018-04-16 23:26:05:745
-4.775;-7.517;-1.058;-4.159;-8.738;-1.587;-0.616;1.221;0.529;-0.132;-0.552;0.951;8.8;3.0;33.6;55.51;6983;2018-04-16 23:26:05:756
-4.401;-7.924;-1.263;-4.35;-8.654;-1.538;-0.051;0.73;0.275;-0.156;-1.17;0.916;8.7;3.3;33.5;55.51;6992;2018-04-16 23:26:05:765
-4.682;-8.436;-0.013;-4.35;-8.654;-1.538;-0.051;0.73;0.275;-0.072;-2.156;0.903;8.7;3.3;33.5;55.51;7002;2018-04-16 23:26:05:775
-4.682;-8.436;-0.013;-4.566;-8.572;-1.354;-0.335;-0.114;1.603;-0.073;-2.327;0.861;8.7;3.6;33.5;55.51;7012;2018-04-16 23:26:05:785
-5.274;-9.178;0.536;-4.566;-8.572;-1.354;-0.335;-0.114;1.603;-0.073;-2.327;0.861;8.7;3.6;33.5;55.51;7023;2018-04-16 23:26:05:796
-4.872;-9.469;0.029;-4.755;-8.498;-1.156;-0.357;-0.992;1.418;-0.258;-2.452;0.715;8.7;3.9;33.6;55.51;7033;2018-04-16 23:26:05:806
-4.872;-9.469;0.029;-4.755;-8.498;-1.156;-0.357;-0.992;1.418;-0.319;-2.639;0.687;8.7;3.9;33.6;55.51;7042;2018-04-16 23:26:05:815
-4.306;-9.7;-0.36;-4.929;-8.429;-0.913;0.34;-1.094;0.524;-0.126;-3.145;0.672;8.9;4.1;33.6;55.51;7053;2018-04-16 23:26:05:826
-4.306;-9.7;-0.36;-4.929;-8.429;-0.913;0.34;-1.094;0.524;0.191;-3.58;0.648;8.9;4.1;33.6;55.51;7062;2018-04-16 23:26:05:835
-3.36;-9.226;1.384;-5.076;-8.378;-0.456;1.716;-0.848;1.84;0.48;-3.602;0.545;9.1;4.3;33.4;55.51;7073;2018-04-16 23:26:05:846
-3.36;-9.226;1.384;-5.076;-8.378;-0.456;1.716;-0.848;1.84;0.797;-2.787;0.389;9.1;4.3;33.4;55.51;7082;2018-04-16 23:26:05:855
-2.453;-8.613;2.745;-5.131;-8.357;-0.057;2.678;-0.256;2.802;0.957;-1.757;0.263;9.5;4.5;33.5;55.51;7092;2018-04-16 23:26:05:865
-2.453;-8.613;2.745;-5.131;-8.357;-0.057;2.678;-0.256;2.802;0.957;-1.757;0.263;9.5;4.5;33.5;55.51;7103;2018-04-16 23:26:05:876
-2.26;-8.059;3.102;-5.139;-8.351;0.185;2.878;0.292;2.917;1.086;0.149;0.042;11.3;5.1;33.8;57.94;7112;2018-04-16 23:26:05:885
-2.26;-8.059;3.102;-5.139;-8.351;0.185;2.878;0.292;2.917;1.103;1.433;-0.112;11.3;5.1;33.8;57.94;7123;2018-04-16 23:26:05:896
-2.953;-8.663;1.135;-5.119;-8.361;0.233;2.165;-0.302;0.902;1.13;1.768;-0.116;12.9;5.9;34.1;57.94;7132;2018-04-16 23:26:05:905
-2.953;-8.663;1.135;-5.119;-8.361;0.233;2.165;-0.302;0.902;1.13;1.768;-0.116;12.9;5.9;34.1;57.94;7142;2018-04-16 23:26:05:915
-3.434;-8.942;0.041;-5.093;-8.376;0.256;1.659;-0.566;-0.215;1.216;1.616;-0.126;12.7;6.6;33.1;57.94;7153;2018-04-16 23:26:05:926
-3.664;-8.908;-0.237;-5.093;-8.376;0.256;1.659;-0.566;-0.215;1.253;1.362;-0.139;12.7;6.6;33.1;57.94;7162;2018-04-16 23:26:05:935
-3.664;-8.908;-0.237;-5.062;-8.393;0.335;1.43;-0.401;-0.586;1.233;1.075;-0.183;12.9;7.7;33.6;57.94;7172;2018-04-16 23:26:05:945
-3.687;-8.631;-0.454;-5.062;-8.393;0.335;1.43;-0.401;-0.586;1.196;0.793;-0.219;12.9;7.7;33.6;57.94;7182;2018-04-16 23:26:05:955
-3.839;-8.475;-0.615;-5.023;-8.41;0.457;1.184;-0.066;-1.072;1.124;0.509;-0.211;12.4;7.8;33.2;57.94;7193;2018-04-16 23:26:05:966
-3.839;-8.475;-0.615;-5.023;-8.41;0.457;1.184;-0.066;-1.072;1.038;-0.007;-0.103;12.4;7.8;33.2;57.94;7202;2018-04-16 23:26:05:975
-3.779;-7.909;-1.185;-5.004;-8.41;0.633;1.224;0.501;-1.818;1.071;-0.53;-0.032;12.6;8.4;33.5;57.94;7212;2018-04-16 23:26:05:985
-3.779;-7.909;-1.185;-5.004;-8.41;0.633;1.224;0.501;-1.818;1.071;-0.53;-0.032;12.6;8.4;33.5;57.94;7223;2018-04-16 23:26:05:996
-4.156;-8.376;-0.457;-4.985;-8.396;0.913;0.828;0.02;-1.371;1.147;-1.222;0.007;12.8;8.8;33.8;57.94;7232;2018-04-16 23:26:06:005
-4.156;-8.376;-0.457;-4.985;-8.396;0.913;0.828;0.02;-1.371;1.18;-1.449;0.0;12.8;8.8;33.8;57.94;7243;2018-04-16 23:26:06:016
-4.289;-9.013;0.974;-4.949;-8.374;1.249;0.66;-0.639;-0.275;1.18;-1.449;0.0;13.3;9.0;33.8;57.94;7252;2018-04-16 23:26:06:025
-3.764;-8.878;0.964;-4.949;-8.374;1.249;0.66;-0.639;-0.275;1.19;-1.14;0.033;13.3;9.0;33.8;57.94;7263;2018-04-16 23:26:06:036
-3.411;-8.655;0.698;-4.915;-8.346;1.537;1.504;-0.309;-0.839;1.181;-0.768;-0.013;13.7;9.5;33.4;57.94;7272;2018-04-16 23:26:06:045
-3.411;-8.655;0.698;-4.915;-8.346;1.537;1.504;-0.309;-0.839;1.181;-0.768;-0.013;13.7;9.5;33.4;57.94;7283;2018-04-16 23:26:06:056
-3.982;-8.854;0.383;-4.882;-8.325;1.742;0.9;-0.529;-1.359;1.153;-0.031;-0.12;14.1;9.7;33.4;57.94;7293;2018-04-16 23:26:06:066
-3.982;-8.854;0.383;-4.882;-8.325;1.742;0.9;-0.529;-1.359;1.153;-0.031;-0.12;14.1;9.7;33.4;57.94;7303;2018-04-16 23:26:06:076
-5.132;-8.914;-0.543;-4.886;-8.298;1.857;-0.246;-0.616;-2.4;0.972;0.553;-0.04;14.4;10.2;33.6;57.94;7313;2018-04-16 23:26:06:086
-5.037;-8.577;-0.711;-4.898;-8.28;1.906;-0.14;-0.298;-2.617;1.001;0.484;0.018;14.5;10.0;33.4;57.94;7323;2018-04-16 23:26:06:096
-5.279;-9.03;-0.268;-4.898;-8.28;1.906;-0.14;-0.298;-2.617;1.203;0.23;-0.021;14.5;10.0;33.4;57.94;7333;2018-04-16 23:26:06:106
-5.279;-9.03;-0.268;-4.902;-8.231;2.094;-0.38;-1.203;-2.296;1.203;0.23;-0.021;14.6;10.5;33.1;57.94;7343;2018-04-16 23:26:06:116
-5.053;-9.926;-0.387;-4.902;-8.231;2.094;-0.38;-1.203;-2.296;1.234;0.235;0.046;14.6;10.5;33.1;57.94;7353;2018-04-16 23:26:06:126
-3.976;-9.403;-1.286;-4.928;-8.177;2.239;0.554;-1.502;-3.146;0.943;0.398;0.112;14.7;11.1;33.1;57.94;7363;2018-04-16 23:26:06:136
-3.976;-9.403;-1.286;-4.928;-8.177;2.239;0.554;-1.502;-3.146;0.943;0.398;0.112;14.7;11.1;33.1;57.94;7372;2018-04-16 23:26:06:145
-3.11;-8.763;-2.097;-4.944;-8.155;2.285;1.834;-0.608;-4.382;0.528;0.031;0.087;14.8;12.0;32.8;57.94;7382;2018-04-16 23:26:06:155
-3.11;-8.763;-2.097;-4.944;-8.155;2.285;1.834;-0.608;-4.382;0.528;0.031;0.087;14.8;12.0;32.8;57.94;7392;2018-04-16 23:26:06:165
-3.461;-9.069;-0.901;-4.906;-8.161;2.344;1.445;-0.908;-3.245;0.211;-0.527;-0.079;14.8;12.3;32.8;57.94;7403;2018-04-16 23:26:06:176
-3.531;-9.079;0.055;-4.879;-8.174;2.355;1.348;-0.905;-2.3;-0.024;-0.5;-0.115;14.7;12.5;32.7;57.94;7413;2018-04-16 23:26:06:186
-3.531;-9.079;0.055;-4.879;-8.174;2.355;1.348;-0.905;-2.3;-0.024;-0.5;-0.115;14.7;12.5;32.7;57.94;7422;2018-04-16 23:26:06:195
-3.585;-9.169;1.567;-4.837;-8.21;2.318;1.029;-1.068;-0.161;-0.319;-0.206;-0.138;14.6;12.9;32.5;53.05;7432;2018-04-16 23:26:06:205
-3.585;-9.169;1.567;-4.837;-8.21;2.318;1.029;-1.068;-0.161;-0.272;0.235;-0.204;14.6;12.9;32.5;53.05;7442;2018-04-16 23:26:06:215
-4.848;-9.833;2.597;-4.817;-8.239;2.257;-0.032;-1.594;0.34;-0.024;0.523;-0.254;14.5;13.4;32.2;53.05;7452;2018-04-16 23:26:06:225
-4.848;-9.833;2.597;-4.817;-8.239;2.257;-0.032;-1.594;0.34;0.238;0.638;-0.298;14.5;13.4;32.2;53.05;7463;2018-04-16 23:26:06:236
-4.769;-9.997;1.83;-4.796;-8.252;2.253;0.026;-1.745;-0.423;0.454;0.627;-0.298;14.5;13.9;32.1;53.05;7473;2018-04-16 23:26:06:246
-4.769;-9.997;1.83;-4.796;-8.252;2.253;0.026;-1.745;-0.423;0.605;0.534;-0.268;14.5;13.9;32.1;53.05;7482;2018-04-16 23:26:06:255
-3.559;-10.321;0.717;-4.774;-8.247;2.315;1.215;-2.074;-1.597;0.663;0.359;-0.233;14.5;14.4;32.1;53.05;7492;2018-04-16 23:26:06:265
-3.11;-10.855;0.008;-4.774;-8.247;2.315;1.215;-2.074;-1.597;0.644;0.099;-0.241;14.5;14.4;32.1;53.05;7503;2018-04-16 23:26:06:276
-3.11;-10.855;0.008;-4.728;-8.243;2.421;1.545;-2.97;-2.527;0.579;-0.227;-0.275;14.5;14.9;31.9;53.05;7512;2018-04-16 23:26:06:285
-3.481;-12.018;-0.358;-4.728;-8.243;2.421;1.545;-2.97;-2.527;0.491;-0.541;-0.291;14.5;14.9;31.9;53.05;7523;2018-04-16 23:26:06:296
-3.731;-12.571;-0.6;-4.646;-8.25;2.554;1.165;-3.768;-2.912;0.376;-0.786;-0.297;14.5;15.3;31.8;53.05;7532;2018-04-16 23:26:06:305
-3.731;-12.571;-0.6;-4.646;-8.25;2.554;1.165;-3.768;-2.912;0.376;-0.786;-0.297;14.5;15.3;31.8;53.05;7542;2018-04-16 23:26:06:315
-4.484;-12.122;-2.149;-4.544;-8.278;2.644;0.06;-3.844;-4.792;-0.079;-0.825;-0.363;14.4;15.7;31.5;53.05;7552;2018-04-16 23:26:06:325
-4.484;-12.122;-2.149;-4.544;-8.278;2.644;0.06;-3.844;-4.792;-0.079;-0.825;-0.363;14.4;15.7;31.5;53.05;7563;2018-04-16 23:26:06:336
-5.516;-9.823;-1.538;-4.476;-8.357;2.511;-1.04;-1.467;-4.049;-1.162;0.202;-0.352;14.4;16.1;31.4;53.05;7573;2018-04-16 23:26:06:346
-5.46;-8.795;-0.493;-4.476;-8.357;2.511;-1.04;-1.467;-4.049;-1.714;0.776;-0.308;14.4;16.1;31.4;53.05;7582;2018-04-16 23:26:06:355
-5.953;-8.509;0.011;-4.469;-8.476;2.088;-1.252;-0.101;-2.168;-2.211;1.111;-0.341;14.3;16.5;31.3;53.05;7593;2018-04-16 23:26:06:366
-5.953;-8.509;0.011;-4.469;-8.476;2.088;-1.252;-0.101;-2.168;-2.336;1.145;-0.34;14.3;16.5;31.3;53.05;7603;2018-04-16 23:26:06:376
-6.677;-8.106;-0.153;-4.461;-8.589;1.582;-2.217;0.483;-1.735;-2.39;1.075;-0.286;14.1;16.7;31.2;53.05;7613;2018-04-16 23:26:06:386
-6.986;-7.83;0.43;-4.461;-8.589;1.582;-2.217;0.483;-1.735;-2.39;1.075;-0.286;14.1;16.7;31.2;53.05;7622;2018-04-16 23:26:06:395
-6.986;-7.83;0.43;-4.452;-8.672;1.073;-2.293;0.854;0.069;-2.534;0.834;-0.198;13.9;16.8;31.3;53.05;7633;2018-04-16 23:26:06:406
-5.956;-7.949;3.066;-4.452;-8.672;1.073;-2.293;0.854;0.069;-2.55;0.865;-0.241;13.9;16.8;31.3;53.05;7642;2018-04-16 23:26:06:415
-5.436;-8.59;5.286;-4.419;-8.736;0.562;-1.536;0.788;2.503;-2.412;1.021;-0.336;13.7;16.8;31.3;53.05;7653;2018-04-16 23:26:06:426
-5.436;-8.59;5.286;-4.387;-8.765;0.313;-1.193;-0.236;5.065;-2.182;1.264;-0.43;13.6;16.7;31.4;53.05;7663;2018-04-16 23:26:06:436
-6.337;-9.869;5.49;-4.387;-8.765;0.313;-1.193;-0.236;5.065;-2.182;1.264;-0.43;13.6;16.7;31.4;53.05;7672;2018-04-16 23:26:06:445
-6.337;-9.869;5.49;-4.311;-8.807;-0.14;-2.796;-1.813;6.575;-1.702;1.688;-0.421;13.3;16.5;31.6;53.05;7683;2018-04-16 23:26:06:456
-8.466;-11.424;6.506;-4.311;-8.807;-0.14;-2.796;-1.813;6.575;-1.453;2.217;-0.316;13.3;16.5;31.6;53.05;7692;2018-04-16 23:26:06:465
-8.466;-11.424;6.506;-4.248;-8.819;-0.596;-4.564;-2.847;5.943;-1.263;2.86;-0.178;12.9;16.3;31.7;53.05;7703;2018-04-16 23:26:06:476
-8.574;-11.46;3.546;-4.248;-8.819;-0.596;-4.564;-2.847;5.943;-1.181;3.343;-0.13;12.9;16.3;31.7;53.05;7712;2018-04-16 23:26:06:485
-7.719;-11.207;-5.358;-4.168;-8.809;-1.092;-3.712;-2.296;-1.963;-1.18;3.499;-0.121;11.7;15.3;32.3;53.05;7723;2018-04-16 23:26:06:496
-7.238;-11.149;-6.273;-4.134;-8.797;-1.3;-3.103;-2.352;-4.973;-1.232;2.414;-0.062;10.8;14.6;31.8;53.05;7733;2018-04-16 23:26:06:506
-7.238;-11.149;-6.273;-4.134;-8.797;-1.3;-3.103;-2.352;-4.973;-1.232;2.414;-0.062;10.8;14.6;31.8;53.05;7743;2018-04-16 23:26:06:516
-4.812;-8.527;-0.672;-4.151;-8.756;-1.505;-0.661;0.229;0.834;-1.059;-0.36;0.108;9.3;13.2;33.1;53.33;7753;2018-04-16 23:26:06:526
-4.812;-8.527;-0.672;-4.151;-8.756;-1.505;-0.661;0.229;0.834;-0.86;-0.503;0.042;9.3;13.2;33.1;53.33;7763;2018-04-16 23:26:06:536
-3.758;-8.019;1.513;-4.162;-8.734;-1.599;0.404;0.715;3.112;-0.655;-0.115;-0.043;8.3;12.7;32.2;53.33;7773;2018-04-16 23:26:06:546
-3.942;-8.568;1.889;-4.162;-8.734;-1.599;0.404;0.715;3.112;-0.487;0.596;-0.177;8.3;12.7;32.2;53.33;7783;2018-04-16 23:26:06:556
-3.942;-8.568;1.889;-4.088;-8.745;-1.726;0.044;0.121;2.925;-0.302;1.453;-0.277;7.7;11.4;33.4;53.33;7793;2018-04-16 23:26:06:566
-4.283;-8.314;0.095;-4.088;-8.745;-1.726;0.044;0.121;2.925;-0.121;2.049;-0.305;7.7;11.4;33.4;53.33;7803;2018-04-16 23:26:06:576
-4.946;-7.561;-1.432;-3.962;-8.768;-1.893;-0.876;1.003;1.4;0.034;2.175;-0.307;6.7;10.6;33.1;53.33;7813;2018-04-16 23:26:06:586
-4.946;-7.561;-1.432;-3.962;-8.768;-1.893;-0.876;1.003;1.4;0.127;1.962;-0.25;6.7;10.6;33.1;53.33;7823;2018-04-16 23:26:06:596
-4.99;-6.541;0.527;-3.87;-8.783;-2.015;-1.12;2.242;2.541;-0.11;1.195;-0.161;5.9;11.0;32.6;53.33;7833;2018-04-16 23:26:06:606
-4.99;-6.541;0.527;-3.87;-8.783;-2.015;-1.12;2.242;2.541;-0.195;0.855;-0.092;5.9;11.0;32.6;53.33;7842;2018-04-16 23:26:06:615
-4.258;-5.95;0.33;-3.82;-8.783;-2.108;-0.438;2.833;2.438;-0.197;0.681;-0.117;5.4;10.4;32.9;53.33;7852;2018-04-16 23:26:06:625
-4.511;-5.819;-0.475;-3.82;-8.783;-2.108;-0.438;2.833;2.438;-0.301;0.448;-0.191;5.4;10.4;32.9;53.33;7862;2018-04-16 23:26:06:635
-4.511;-5.819;-0.475;-3.775;-8.775;-2.217;-1.064;2.91;1.597;-0.743;0.016;-0.219;4.7;10.1;32.3;53.33;7872;2018-04-16 23:26:06:645
-5.076;-5.573;-0.449;-3.775;-8.775;-2.217;-1.064;2.91;1.597;-1.13;-0.095;-0.12;4.7;10.1;32.3;53.33;7882;2018-04-16 23:26:06:655
-5.215;-4.682;0.285;-3.765;-8.721;-2.435;-1.352;3.824;2.712;-1.399;0.028;-0.011;4.4;9.9;32.5;53.33;7892;2018-04-16 23:26:06:665
-5.215;-4.682;0.285;-3.765;-8.721;-2.435;-1.352;3.824;2.712;-1.467;0.235;0.057;4.4;9.9;32.5;53.33;7902;2018-04-16 23:26:06:675
-5.649;-3.991;0.154;-3.769;-8.643;-2.697;-1.88;4.651;2.851;-1.326;0.291;0.131;4.5;9.4;32.9;53.33;7912;2018-04-16 23:26:06:685
-5.649;-3.991;0.154;-3.769;-8.643;-2.697;-1.88;4.651;2.851;-1.003;0.222;0.198;4.5;9.4;32.9;53.33;7922;2018-04-16 23:26:06:695
-4.691;-3.776;-0.019;-3.798;-8.581;-2.848;-0.893;4.805;2.829;-0.619;0.103;0.241;4.3;9.0;32.8;53.33;7932;2018-04-16 23:26:06:705
-3.789;-4.059;-0.11;-3.798;-8.581;-2.848;-0.893;4.805;2.829;-0.274;-0.02;0.286;4.3;9.0;32.8;53.33;7942;2018-04-16 23:26:06:715
-3.789;-4.059;-0.11;-3.857;-8.549;-2.865;0.543;4.418;2.614;0.007;-0.121;0.342;4.6;9.3;33.0;53.33;7952;2018-04-16 23:26:06:725
-2.641;-4.228;-0.363;-3.857;-8.549;-2.865;0.543;4.418;2.614;0.221;-0.226;0.396;4.6;9.3;33.0;53.33;7962;2018-04-16 23:26:06:735
-2.033;-4.354;-0.563;-3.944;-8.533;-2.792;1.766;4.255;2.356;0.386;-0.327;0.446;4.5;9.3;33.0;53.33;7972;2018-04-16 23:26:06:745
-2.033;-4.354;-0.563;-3.944;-8.533;-2.792;1.766;4.255;2.356;0.533;-0.412;0.506;4.5;9.3;33.0;53.33;7982;2018-04-16 23:26:06:755
-1.652;-4.821;-1.1;-4.061;-8.523;-2.652;2.409;3.702;1.552;0.656;-0.542;0.56;4.0;9.0;32.8;53.33;7992;2018-04-16 23:26:06:765
-1.353;-5.8;-1.907;-4.061;-8.523;-2.652;2.409;3.702;1.552;0.735;-0.751;0.601;4.0;9.0;32.8;53.33;8002;2018-04-16 23:26:06:775
-1.353;-5.8;-1.907;-4.21;-8.511;-2.45;2.976;2.047;0.161;0.765;-1.047;0.619;3.6;8.8;32.8;53.33;8012;2018-04-16 23:26:06:785
-1.158;-7.849;-3.023;-4.21;-8.511;-2.45;2.976;2.047;0.161;0.748;-1.436;0.573;3.6;8.8;32.8;53.33;8023;2018-04-16 23:26:06:796
-1.973;-10.709;-4.088;-4.368;-8.502;-2.193;2.663;-1.336;-1.522;0.641;-1.822;0.413;3.4;8.6;32.7;53.33;8033;2018-04-16 23:26:06:806
-1.973;-10.709;-4.088;-4.368;-8.502;-2.193;2.663;-1.336;-1.522;0.428;-2.062;0.203;3.4;8.6;32.7;53.33;8042;2018-04-16 23:26:06:815
-2.586;-13.98;-5.874;-4.479;-8.501;-1.959;1.893;-5.478;-3.916;0.116;-2.192;0.07;3.2;8.5;32.6;53.33;8052;2018-04-16 23:26:06:825
-2.017;-15.033;-8.021;-4.479;-8.501;-1.959;1.893;-5.478;-3.916;-0.261;-2.2;0.004;3.2;8.5;32.6;53.33;8062;2018-04-16 23:26:06:835
-2.017;-15.033;-8.021;-4.553;-8.488;-1.842;2.697;-6.744;-6.829;-0.682;-2.167;-0.098;3.3;8.5;32.8;53.33;8072;2018-04-16 23:26:06:845
-1.535;-14.723;-8.153;-4.553;-8.488;-1.842;2.697;-6.744;-6.829;-1.103;-2.077;-0.187;3.3;8.5;32.8;53.33;8082;2018-04-16 23:26:06:855
-1.518;-12.923;-6.756;-4.583;-8.464;-1.878;3.187;-5.005;-5.094;-1.37;-1.728;-0.277;3.3;8.6;32.8;56.2;8092;2018-04-16 23:26:06:865
-1.518;-12.923;-6.756;-4.583;-8.464;-1.878;3.187;-5.005;-5.094;-1.39;-1.046;-0.441;3.3;8.6;32.8;56.2;8102;2018-04-16 23:26:06:875
-2.825;-10.983;-7.3;-4.518;-8.461;-2.041;1.693;-2.522;-5.259;-1.208;-0.21;-0.613;3.4;8.5;32.8;56.2;8113;2018-04-16 23:26:06:886
-2.825;-10.983;-7.3;-4.518;-8.461;-2.041;1.693;-2.522;-5.259;-0.8;0.456;-0.699;3.4;8.5;32.8;56.2;8123;2018-04-16 23:26:06:896
-4.95;-9.626;-6.09;-4.375;-8.504;-2.171;-0.575;-1.122;-3.918;-0.108;0.722;-0.687;3.6;8.4;33.0;56.2;8133;2018-04-16 23:26:06:906
-4.95;-9.626;-6.09;-4.375;-8.504;-2.171;-0.575;-1.122;-3.918;0.748;0.71;-0.607;3.6;8.4;33.0;56.2;8142;2018-04-16 23:26:06:915
-6.888;-8.103;-3.91;-4.265;-8.596;-2.02;-2.623;0.493;-1.889;1.308;-0.155;-0.546;3.8;8.3;33.1;56.2;8152;2018-04-16 23:26:06:925
-9.216;-7.16;-2.417;-4.265;-8.596;-2.02;-2.623;0.493;-1.889;1.208;-0.648;-0.469;3.8;8.3;33.1;56.2;8163;2018-04-16 23:26:06:936
-9.216;-7.16;-2.417;-4.227;-8.668;-1.779;-6.099;1.433;0.372;0.753;-1.054;-0.347;4.1;8.3;33.3;56.2;8173;2018-04-16 23:26:06:946
-12.261;-8.44;-1.906;-4.227;-8.668;-1.779;-6.099;1.433;0.372;0.194;-1.08;-0.222;4.1;8.3;33.3;56.2;8182;2018-04-16 23:26:06:955
-12.643;-11.484;-2.982;-4.242;-8.676;-1.703;-9.163;-1.848;-0.664;-0.347;-1.019;-0.032;4.4;8.4;33.5;56.2;8193;2018-04-16 23:26:06:966
-12.643;-11.484;-2.982;-4.242;-8.676;-1.703;-9.163;-1.848;-0.664;-0.63;-0.91;0.133;4.4;8.4;33.5;56.2;8202;2018-04-16 23:26:06:975
-5.224;-13.923;-5.047;-4.28;-8.646;-1.76;-0.944;-5.278;-3.287;-0.756;-0.566;0.013;4.7;8.4;33.7;56.2;8213;2018-04-16 23:26:06:986
-3.39;-12.95;1.699;-4.28;-8.646;-1.76;-0.944;-5.278;-3.287;-0.874;0.814;-0.294;4.7;8.4;33.7;56.2;8222;2018-04-16 23:26:06:995
-3.39;-12.95;1.699;-4.171;-8.651;-1.985;1.212;-0.665;4.447;-0.517;2.029;-0.294;5.1;8.6;33.8;56.2;8233;2018-04-16 23:26:07:006
-1.383;-3.464;3.814;-4.171;-8.651;-1.985;1.212;-0.665;4.447;-0.159;2.149;-0.169;5.1;8.6;33.8;56.2;8242;2018-04-16 23:26:07:015
-1.112;0.266;4.617;-4.049;-8.667;-2.16;3.088;8.359;7.324;0.11;2.027;-0.235;5.4;8.6;34.0;56.2;8252;2018-04-16 23:26:07:025
-1.112;0.266;4.617;-4.049;-8.667;-2.16;3.088;8.359;7.324;0.398;1.996;-0.393;5.4;8.6;34.0;56.2;8263;2018-04-16 23:26:07:036
-2.266;-0.611;2.085;-3.885;-8.726;-2.22;1.619;8.115;4.306;0.635;1.822;-0.534;5.6;8.6;34.2;56.2;8272;2018-04-16 23:26:07:045
-5.874;-4.111;1.38;-3.885;-8.726;-2.22;1.619;8.115;4.306;0.827;1.51;-0.506;5.6;8.6;34.2;56.2;8282;2018-04-16 23:26:07:055
-5.874;-4.111;1.38;-3.78;-8.791;-2.144;-3.76;2.898;3.328;1.003;1.162;-0.26;5.7;8.7;34.4;56.2;8293;2018-04-16 23:26:07:066
-9.584;-8.684;0.514;-3.78;-8.791;-2.144;-3.76;2.898;3.328;1.107;0.841;0.136;5.7;8.7;34.4;56.2;8302;2018-04-16 23:26:07:075
-10.15;-11.225;-0.055;-3.813;-8.811;-2.001;-6.378;-1.882;2.046;1.078;0.473;0.535;5.7;8.7;34.4;56.2;8312;2018-04-16 23:26:07:085
-10.15;-11.225;-0.055;-3.813;-8.811;-2.001;-6.378;-1.882;2.046;0.899;0.092;0.779;5.7;8.7;34.4;56.2;8323;2018-04-16 23:26:07:096
-9.273;-11.619;0.054;-3.96;-8.777;-1.858;-5.312;-2.842;1.912;0.649;-0.243;0.864;5.7;8.8;34.4;56.2;8333;2018-04-16 23:26:07:106
-7.671;-10.138;0.685;-3.96;-8.777;-1.858;-5.312;-2.842;1.912;0.412;-0.461;0.83;5.7;8.8;34.4;56.2;8342;2018-04-16 23:26:07:115
-7.671;-10.138;0.685;-4.119;-8.723;-1.765;-2.881;-0.711;2.169;0.217;-0.464;0.794;5.7;8.9;34.4;56.2;8352;2018-04-16 23:26:07:125
-5.873;-8.211;-0.217;-4.119;-8.723;-1.765;-2.881;-0.711;2.169;0.04;-0.442;0.82;5.7;8.9;34.4;56.2;8363;2018-04-16 23:26:07:136
-4.701;-7.235;-0.828;-4.291;-8.648;-1.724;-0.603;1.257;1.021;-0.132;-0.562;0.878;5.6;9.0;34.3;56.2;8373;2018-04-16 23:26:07:146
-4.701;-7.235;-0.828;-4.291;-8.648;-1.724;-0.603;1.257;1.021;-0.274;-0.841;0.909;5.6;9.0;34.3;56.2;8383;2018-04-16 23:26:07:156
-4.462;-7.313;-0.848;-4.482;-8.557;-1.69;0.02;1.244;0.842;-0.386;-1.225;0.903;5.4;9.1;34.2;56.2;8392;2018-04-16 23:26:07:165
-4.617;-7.956;-0.675;-4.482;-8.557;-1.69;0.02;1.244;0.842;-0.454;-1.651;0.88;5.4;9.1;34.2;56.2;8403;2018-04-16 23:26:07:176
-4.617;-7.956;-0.675;-4.689;-8.464;-1.597;0.026;0.194;0.972;-0.512;-2.043;0.831;5.3;9.3;34.1;59.85;8413;2018-04-16 23:26:07:186
-4.502;-8.945;-1.033;-4.689;-8.464;-1.597;0.026;0.194;0.972;-0.513;-2.668;0.667;5.3;9.3;34.1;59.85;8423;2018-04-16 23:26:07:196
-4.237;-9.74;-1.057;-4.886;-8.393;-1.366;0.551;-1.215;0.099;-0.252;-3.47;0.607;5.2;9.5;34.2;59.85;8433;2018-04-16 23:26:07:206
-4.237;-9.74;-1.057;-4.886;-8.393;-1.366;0.551;-1.215;0.099;0.158;-4.346;0.578;5.2;9.5;34.2;59.85;8443;2018-04-16 23:26:07:216
-3.479;-9.674;0.664;-5.066;-8.354;-0.849;1.587;-1.32;1.513;0.5;-4.848;0.434;5.3;9.6;34.2;59.85;8452;2018-04-16 23:26:07:225
-3.505;-9.623;1.85;-5.066;-8.354;-0.849;1.587;-1.32;1.513;0.71;-4.825;0.266;5.3;9.6;34.2;59.85;8463;2018-04-16 23:26:07:236
-3.505;-9.623;1.85;-5.148;-8.344;-0.23;1.84;-1.001;2.325;0.915;-4.451;0.216;5.6;9.8;34.3;59.85;8472;2018-04-16 23:26:07:245
-2.58;-8.575;2.968;-5.148;-8.344;-0.23;1.84;-1.001;2.325;1.235;-3.807;0.193;5.6;9.8;34.3;59.85;8482;2018-04-16 23:26:07:255
-1.682;-7.871;4.027;-5.15;-8.338;0.35;3.245;0.323;3.593;1.575;-2.553;0.065;8.1;10.6;34.7;59.85;8493;2018-04-16 23:26:07:266
-1.682;-7.871;4.027;-5.15;-8.338;0.35;3.245;0.323;3.593;1.737;-0.71;-0.241;8.1;10.6;34.7;59.85;8502;2018-04-16 23:26:07:275
-2.672;-8.504;3.187;-5.074;-8.368;0.635;2.402;-0.136;2.552;1.703;1.093;-0.522;10.7;11.5;35.8;59.85;8512;2018-04-16 23:26:07:285
-3.055;-8.58;1.359;-5.074;-8.368;0.635;2.402;-0.136;2.552;1.599;2.329;-0.558;10.7;11.5;35.8;59.85;8523;2018-04-16 23:26:07:296
-3.055;-8.58;1.359;-5.011;-8.406;0.627;2.05;-0.043;0.438;1.462;2.994;-0.492;11.4;12.5;34.9;59.85;8532;2018-04-16 23:26:07:305
-2.81;-8.326;0.543;-5.011;-8.406;0.627;2.05;-0.043;0.438;1.367;3.297;-0.446;11.4;12.5;34.9;59.85;8543;2018-04-16 23:26:07:316
-3.349;-8.574;-0.385;-4.971;-8.437;0.522;1.74;-0.082;-0.646;1.308;3.297;-0.426;11.1;13.8;34.9;59.85;8552;2018-04-16 23:26:07:325
-3.349;-8.574;-0.385;-4.971;-8.437;0.522;1.74;-0.082;-0.646;1.297;3.001;-0.371;11.1;13.8;34.9;59.85;8563;2018-04-16 23:26:07:336
-3.628;-8.635;-1.237;-4.932;-8.463;0.469;1.304;-0.172;-1.706;1.379;2.376;-0.32;9.6;14.7;35.5;59.85;8572;2018-04-16 23:26:07:345
-3.985;-9.167;-1.634;-4.932;-8.463;0.469;1.304;-0.172;-1.706;1.519;1.532;-0.299;9.6;14.7;35.5;59.85;8582;2018-04-16 23:26:07:355
-3.985;-9.167;-1.634;-4.891;-8.478;0.615;0.687;-1.006;-2.19;1.621;0.64;-0.27;8.6;15.0;33.8;59.85;8592;2018-04-16 23:26:07:365
-4.349;-9.736;-1.277;-4.891;-8.478;0.615;0.687;-1.006;-2.19;1.589;-0.103;-0.18;8.6;15.0;33.8;59.85;8602;2018-04-16 23:26:07:375
-4.071;-9.396;-0.679;-4.863;-8.468;0.902;0.642;-1.145;-1.766;1.429;-0.586;-0.064;9.0;16.4;33.0;59.85;8613;2018-04-16 23:26:07:386
-4.071;-9.396;-0.679;-4.863;-8.468;0.902;0.642;-1.145;-1.766;1.163;-0.836;0.035;9.0;16.4;33.0;59.85;8622;2018-04-16 23:26:07:395
-3.549;-8.559;-0.004;-4.847;-8.447;1.152;1.298;-0.113;-1.155;0.889;-0.96;0.078;8.9;16.2;33.9;59.85;8632;2018-04-16 23:26:07:405
-3.549;-8.559;-0.004;-4.847;-8.447;1.152;1.298;-0.113;-1.155;0.748;-1.068;0.07;8.9;16.2;33.9;59.85;8643;2018-04-16 23:26:07:416
-3.588;-8.085;1.137;-4.823;-8.424;1.396;1.236;0.338;-0.258;0.841;-1.219;0.007;9.5;16.3;33.9;59.85;8652;2018-04-16 23:26:07:425
-3.882;-8.454;0.895;-4.823;-8.424;1.396;1.236;0.338;-0.258;1.051;-1.242;-0.054;9.5;16.3;33.9;59.85;8662;2018-04-16 23:26:07:435
-3.882;-8.454;0.895;-4.769;-8.398;1.705;0.706;-0.153;-1.007;1.205;-1.023;-0.101;10.2;17.3;33.4;59.85;8673;2018-04-16 23:26:07:446
-4.675;-8.648;0.265;-4.769;-8.398;1.705;0.706;-0.153;-1.007;1.213;-0.825;-0.095;10.2;17.3;33.4;59.85;8682;2018-04-16 23:26:07:455
-5.727;-8.781;-0.36;-4.729;-8.365;1.959;-0.744;-0.379;-2.226;1.229;-0.659;-0.037;10.5;17.4;34.5;59.85;8692;2018-04-16 23:26:07:465
-5.727;-8.781;-0.36;-4.729;-8.365;1.959;-0.744;-0.379;-2.226;1.229;-0.659;-0.037;10.5;17.4;34.5;59.85;8702;2018-04-16 23:26:07:475
-6.219;-8.905;0.233;-4.719;-8.308;2.21;-1.5;-0.598;-1.976;1.323;-0.225;0.045;11.0;18.4;33.5;59.85;8712;2018-04-16 23:26:07:485
-5.895;-8.744;0.815;-4.719;-8.308;2.21;-1.5;-0.598;-1.976;1.269;0.29;0.049;11.0;18.4;33.5;59.85;8723;2018-04-16 23:26:07:496
-5.895;-8.744;0.815;-4.758;-8.247;2.348;-0.938;-0.406;-1.885;1.12;0.876;0.072;11.2;18.8;33.0;56.72;8733;2018-04-16 23:26:07:506
-5.409;-8.422;-0.467;-4.758;-8.247;2.348;-0.938;-0.406;-1.885;0.964;1.208;0.131;11.2;18.8;33.0;56.72;8743;2018-04-16 23:26:07:516
-4.93;-8.084;-1.65;-4.849;-8.191;2.358;-0.186;0.051;-3.71;0.881;1.155;0.189;10.9;19.6;33.1;56.72;8752;2018-04-16 23:26:07:525
-4.93;-8.084;-1.65;-4.849;-8.191;2.358;-0.186;0.051;-3.71;0.858;0.817;0.222;10.9;19.6;33.1;56.72;8763;2018-04-16 23:26:07:536
-4.015;-8.278;-1.805;-4.918;-8.138;2.399;0.903;-0.14;-4.204;0.775;0.464;0.226;10.7;20.4;32.4;56.72;8772;2018-04-16 23:26:07:545
-4.015;-8.278;-1.805;-4.918;-8.138;2.399;0.903;-0.14;-4.204;0.579;0.241;0.231;10.7;20.4;32.4;56.72;8782;2018-04-16 23:26:07:555
-3.28;-9.157;-1.267;-4.958;-8.109;2.415;1.678;-1.047;-3.682;0.31;0.148;0.247;10.4;20.4;32.3;56.72;8793;2018-04-16 23:26:07:566
-3.28;-9.157;-1.267;-4.958;-8.109;2.415;1.678;-1.047;-3.682;0.31;0.148;0.247;10.4;20.4;32.3;56.72;8803;2018-04-16 23:26:07:576
-2.516;-9.386;-0.099;-4.984;-8.114;2.344;2.468;-1.273;-2.443;-0.32;0.215;0.206;10.6;21.1;31.9;56.72;8813;2018-04-16 23:26:07:586
-2.278;-9.373;0.427;-4.984;-8.114;2.344;2.468;-1.273;-2.443;-0.546;0.213;0.165;10.6;21.1;31.9;56.72;8822;2018-04-16 23:26:07:595
-2.278;-9.373;0.427;-4.991;-8.145;2.217;2.516;-1.249;-1.449;-0.632;0.066;0.119;10.2;20.7;32.1;56.72;8832;2018-04-16 23:26:07:605
-2.995;-9.592;1.462;-4.987;-8.158;2.18;1.992;-1.435;-0.718;-0.511;-0.147;0.066;10.1;20.8;32.0;56.72;8843;2018-04-16 23:26:07:616
-2.995;-9.592;1.462;-4.987;-8.158;2.18;1.992;-1.435;-0.718;-0.511;-0.147;0.066;10.1;20.8;32.0;56.72;8853;2018-04-16 23:26:07:626
-4.289;-10.997;2.613;-4.963;-8.172;2.183;0.673;-2.825;0.43;-0.032;-0.236;-0.123;9.9;20.7;32.0;56.72;8862;2018-04-16 23:26:07:635
-4.289;-10.997;2.613;-4.963;-8.172;2.183;0.673;-2.825;0.43;0.122;-0.057;-0.17;9.9;20.7;32.0;56.72;8873;2018-04-16 23:26:07:646
-4.374;-11.296;1.844;-4.931;-8.183;2.211;0.556;-3.112;-0.368;0.232;0.061;-0.22;10.0;21.1;31.9;56.72;8882;2018-04-16 23:26:07:655
-4.214;-11.368;1.026;-4.909;-8.19;2.236;0.695;-3.178;-1.21;0.337;0.054;-0.276;10.0;21.3;31.8;56.72;8892;2018-04-16 23:26:07:665
-4.214;-11.368;1.026;-4.909;-8.19;2.236;0.695;-3.178;-1.21;0.456;-0.131;-0.324;10.1;21.7;31.7;56.72;8903;2018-04-16 23:26:07:676
-3.584;-11.768;-0.451;-4.838;-8.202;2.344;1.254;-3.566;-2.795;0.549;-0.56;-0.42;10.1;21.7;31.7;56.72;8913;2018-04-16 23:26:07:686
-3.584;-11.768;-0.451;-4.838;-8.202;2.344;1.254;-3.566;-2.795;0.549;-0.56;-0.42;10.1;21.7;31.7;56.72;8922;2018-04-16 23:26:07:695
-3.724;-12.568;-2.057;-4.719;-8.229;2.488;0.995;-4.34;-4.545;0.397;-0.775;-0.558;10.1;22.1;31.5;56.72;8933;2018-04-16 23:26:07:706
-3.724;-12.568;-2.057;-4.719;-8.229;2.488;0.995;-4.34;-4.545;0.093;-0.552;-0.63;10.1;22.1;31.5;56.72;8942;2018-04-16 23:26:07:715
-4.384;-12.564;-3.518;-4.598;-8.299;2.483;0.214;-4.265;-6.001;0.093;-0.552;-0.63;10.1;22.4;31.3;56.72;8953;2018-04-16 23:26:07:726
-4.678;-11.307;-1.753;-4.598;-8.299;2.483;0.214;-4.265;-6.001;-1.23;0.473;-0.629;10.1;22.4;31.3;56.72;8963;2018-04-16 23:26:07:736
-4.678;-11.307;-1.753;-4.536;-8.427;2.142;-0.142;-2.88;-3.894;-2.183;0.733;-0.443;10.1;22.7;31.3;56.72;8972;2018-04-16 23:26:07:745
-5.0;-9.729;-0.973;-4.536;-8.427;2.142;-0.142;-2.88;-3.894;-2.571;0.691;-0.36;10.1;22.7;31.3;56.72;8982;2018-04-16 23:26:07:755
-5.0;-9.729;-0.973;-4.509;-8.559;1.608;-1.527;0.6;-2.639;-2.571;0.691;-0.36;9.9;22.9;31.1;56.72;8992;2018-04-16 23:26:07:765
-7.124;-7.709;-1.138;-4.509;-8.559;1.608;-1.527;0.6;-2.639;-3.064;0.552;-0.349;9.9;22.9;31.1;56.72;9002;2018-04-16 23:26:07:775
-7.124;-7.709;-1.138;-4.472;-8.668;1.015;-3.128;0.692;-1.197;-3.205;0.593;-0.285;9.7;22.9;31.2;56.72;9013;2018-04-16 23:26:07:786
-7.114;-8.34;2.331;-4.472;-8.668;1.015;-3.128;0.692;-1.197;-3.119;0.896;-0.23;9.7;22.9;31.2;56.72;9022;2018-04-16 23:26:07:795
-7.114;-8.34;2.331;-4.443;-8.733;0.396;-2.07;-0.124;4.462;-3.119;0.896;-0.23;9.5;22.8;31.4;56.72;9033;2018-04-16 23:26:07:806
-6.336;-9.443;6.527;-4.443;-8.733;0.396;-2.07;-0.124;4.462;-2.583;1.631;-0.332;9.5;22.8;31.4;56.72;9042;2018-04-16 23:26:07:815
-6.797;-9.853;7.025;-4.38;-8.772;-0.187;-2.417;-1.081;7.212;-2.154;2.217;-0.426;9.2;22.5;31.6;53.02;9053;2018-04-16 23:26:07:826
-6.797;-9.853;7.025;-4.38;-8.772;-0.187;-2.417;-1.081;7.212;-2.154;2.217;-0.426;9.2;22.5;31.6;53.02;9062;2018-04-16 23:26:07:835
-8.004;-10.819;6.407;-4.276;-8.795;-0.735;-3.728;-2.025;7.141;-1.348;3.526;-0.393;8.6;21.6;32.0;53.02;9073;2018-04-16 23:26:07:846
-8.004;-10.819;6.407;-4.276;-8.795;-0.735;-3.728;-2.025;7.141;-1.348;3.526;-0.393;8.6;21.6;32.0;53.02;9082;2018-04-16 23:26:07:855
-7.144;-10.687;3.245;-4.128;-8.812;-1.216;-3.017;-1.874;4.461;-0.833;3.697;-0.446;6.9;19.4;32.7;53.02;9093;2018-04-16 23:26:07:866
-7.144;-10.687;3.245;-4.128;-8.812;-1.216;-3.017;-1.874;4.461;-0.649;3.323;-0.419;6.9;19.4;32.7;53.02;9102;2018-04-16 23:26:07:875
-6.236;-10.936;-4.187;-3.988;-8.823;-1.553;-2.248;-2.112;-2.634;-0.615;2.238;-0.294;4.7;17.6;34.2;53.02;9113;2018-04-16 23:26:07:886
-5.715;-10.197;-2.922;-3.956;-8.82;-1.654;-1.759;-1.377;-1.268;-0.651;1.08;-0.167;3.5;16.7;33.2;53.02;9122;2018-04-16 23:26:07:895
-5.715;-10.197;-2.922;-3.956;-8.82;-1.654;-1.759;-1.377;-1.268;-0.651;1.08;-0.167;3.5;16.7;33.2;53.02;9133;2018-04-16 23:26:07:906
-5.098;-8.812;0.479;-3.916;-8.806;-1.815;-1.183;-0.006;2.294;-0.724;0.567;-0.164;2.1;16.0;32.9;53.02;9142;2018-04-16 23:26:07:915
-5.098;-8.812;0.479;-3.916;-8.806;-1.815;-1.183;-0.006;2.294;-0.724;0.567;-0.164;2.1;16.0;32.9;53.02;9153;2018-04-16 23:26:07:926
-5.168;-8.118;0.213;-3.842;-8.793;-2.02;-1.325;0.676;2.233;-0.729;1.538;-0.188;2.1;16.2;33.0;53.02;9163;2018-04-16 23:26:07:936
-4.997;-7.767;-0.388;-3.793;-8.784;-2.149;-1.204;1.018;1.761;-0.718;1.878;-0.17;1.3;14.8;33.2;53.02;9173;2018-04-16 23:26:07:946
-4.997;-7.767;-0.388;-3.793;-8.784;-2.149;-1.204;1.018;1.761;-0.639;1.772;-0.138;1.3;14.8;33.2;53.02;9183;2018-04-16 23:26:07:956
-4.011;-7.871;-0.863;-3.697;-8.771;-2.359;-0.314;0.9;1.496;-0.435;0.888;-0.233;0.0;14.6;34.2;53.02;9193;2018-04-16 23:26:07:966
-3.813;-7.648;0.481;-3.697;-8.771;-2.359;-0.314;0.9;1.496;-0.352;0.171;-0.241;0.0;14.6;34.2;53.02;9203;2018-04-16 23:26:07:976
-3.813;-7.648;0.481;-3.644;-8.773;-2.434;0.316;1.174;2.692;-0.352;0.171;-0.241;-0.4;14.6;33.0;53.02;9213;2018-04-16 23:26:07:986
-3.072;-7.643;0.048;-3.644;-8.773;-2.434;0.316;1.174;2.692;-0.227;-0.225;-0.301;-0.4;14.6;33.0;53.02;9223;2018-04-16 23:26:07:996
-3.072;-7.643;0.048;-3.598;-8.783;-2.464;0.083;1.179;2.537;-0.33;-0.287;-0.36;-0.8;13.5;33.1;53.02;9233;2018-04-16 23:26:08:006
-3.602;-6.683;0.247;-3.598;-8.783;-2.464;0.083;1.179;2.537;-0.615;-0.208;-0.326;-0.4;13.8;32.9;53.02;9243;2018-04-16 23:26:08:016
-3.602;-6.683;0.247;-3.551;-8.76;-2.611;-0.652;3.104;2.626;-1.098;0.132;-0.23;-0.4;13.8;32.9;53.02;9252;2018-04-16 23:26:08:025
-5.059;-4.766;0.06;-3.551;-8.76;-2.611;-0.652;3.104;2.626;-1.098;0.132;-0.23;-0.4;13.8;32.9;53.02;9263;2018-04-16 23:26:08:036
-6.188;-3.321;0.8;-3.52;-8.697;-2.853;-2.427;4.882;3.492;-1.376;0.048;-0.114;-0.9;13.1;33.8;53.02;9272;2018-04-16 23:26:08:045
-6.188;-3.321;0.8;-3.52;-8.697;-2.853;-2.427;4.882;3.492;-1.229;0.056;0.029;-0.9;13.1;33.8;53.02;9283;2018-04-16 23:26:08:056
-6.651;-2.128;0.713;-3.535;-8.625;-3.046;-3.116;6.497;3.76;-0.831;0.018;0.199;-1.2;12.0;33.7;53.02;9292;2018-04-16 23:26:08:065
-6.054;-2.167;0.462;-3.576;-8.576;-3.137;-2.478;6.409;3.599;-0.364;0.024;0.252;-1.0;11.9;34.0;53.02;9303;2018-04-16 23:26:08:076
-6.054;-2.167;0.462;-3.576;-8.576;-3.137;-2.478;6.409;3.599;-0.364;0.024;0.252;-1.0;11.9;34.0;53.02;9312;2018-04-16 23:26:08:085
-5.079;-2.902;0.077;-3.604;-8.562;-3.142;-1.476;5.66;3.219;-0.07;-0.009;0.313;-0.9;12.5;33.2;53.02;9322;2018-04-16 23:26:08:095
-5.079;-2.902;0.077;-3.604;-8.562;-3.142;-1.476;5.66;3.219;0.299;-0.139;0.42;-0.9;12.5;33.2;53.02;9332;2018-04-16 23:26:08:105
-3.11;-4.096;-0.637;-3.684;-8.55;-3.081;0.574;4.453;2.444;0.299;-0.139;0.42;-1.1;12.1;33.6;53.02;9343;2018-04-16 23:26:08:116
-3.11;-4.096;-0.637;-3.684;-8.55;-3.081;0.574;4.453;2.444;0.585;-0.338;0.481;-1.1;12.1;33.6;53.02;9352;2018-04-16 23:26:08:125
-1.771;-5.023;-1.834;-3.796;-8.552;-2.937;2.025;3.529;1.103;0.726;-0.524;0.522;-0.8;12.6;33.6;53.02;9363;2018-04-16 23:26:08:136
-0.716;-6.217;-2.981;-3.796;-8.552;-2.937;2.025;3.529;1.103;0.779;-0.833;0.582;-0.8;12.6;33.6;53.02;9373;2018-04-16 23:26:08:146
-0.716;-6.217;-2.981;-3.956;-8.549;-2.727;3.559;1.496;-0.883;0.751;-1.194;0.621;-1.3;12.3;33.6;53.02;9383;2018-04-16 23:26:08:156
-0.373;-9.148;-4.539;-3.956;-8.549;-2.727;3.559;1.496;-0.883;0.502;-1.789;0.536;-1.3;12.3;33.6;58.87;9393;2018-04-16 23:26:08:166
-0.373;-9.148;-4.539;-4.129;-8.535;-2.505;3.365;-3.211;-2.734;0.502;-1.789;0.536;-1.7;12.1;33.6;58.87;9403;2018-04-16 23:26:08:176
-0.547;-13.768;-6.657;-4.129;-8.535;-2.505;3.365;-3.211;-2.734;0.071;-2.072;0.368;-1.7;12.1;33.6;58.87;9412;2018-04-16 23:26:08:185
-0.547;-13.768;-6.657;-4.277;-8.508;-2.343;3.781;-6.953;-5.934;-0.249;-2.178;0.177;-1.8;12.0;33.6;58.87;9423;2018-04-16 23:26:08:196
