sep=;
acc_x;acc_y;acc_z;grav_x;grav_y;grav_z;lin_acc_x;lin_acc_y;lin_acc_z;gyro_x;gyro_y;gyro_z;mag_x;mag_y;mag_z;sound_lvl;time_ms;date_time
16.419;-2.837;10.472;9.256;-0.508;3.199;7.312;-2.262;6.881;1.657;-4.45;4.258;-2.4;-27.3;3.8;50.31;22;2018-04-16 23:03:37:449
16.718;-2.398;8.671;9.32;-0.793;2.945;7.397;-1.605;5.726;1.739;-3.141;3.956;-2.4;-27.2;4.0;50.31;31;2018-04-16 23:03:37:458
15.909;-1.595;6.402;9.371;-1.353;2.555;6.539;-0.242;3.847;1.889;-2.26;3.522;-2.4;-27.2;4.0;50.31;42;2018-04-16 23:03:37:469
15.909;-1.595;6.402;9.371;-1.353;2.555;6.539;-0.242;3.847;2.077;-1.878;3.244;-2.6;-27.0;4.2;50.31;52;2018-04-16 23:03:37:479
15.033;-1.401;3.955;9.363;-1.808;2.288;5.474;0.358;1.421;2.228;-1.789;2.996;-2.8;-26.9;4.2;50.31;61;2018-04-16 23:03:37:488
15.033;-1.401;3.955;9.363;-1.808;2.288;5.474;0.358;1.421;2.228;-1.789;2.996;-2.8;-26.9;4.2;50.31;72;2018-04-16 23:03:37:499
14.31;-1.735;3.065;9.352;-2.029;2.143;4.958;0.294;0.921;2.421;-1.908;2.731;-6.3;-26.0;7.5;50.31;82;2018-04-16 23:03:37:509
15.0;-0.639;2.878;9.309;-2.423;1.908;5.691;1.784;0.97;2.458;-1.867;2.654;-6.3;-26.0;7.5;50.31;92;2018-04-16 23:03:37:519
15.0;-0.639;2.878;9.309;-2.423;1.908;5.691;1.784;0.97;2.381;-1.664;2.571;-8.0;-24.4;10.1;50.31;102;2018-04-16 23:03:37:529
16.03;1.208;2.477;9.24;-2.768;1.767;6.959;4.5;0.569;2.286;-1.406;2.342;-8.8;-24.0;10.8;50.31;112;2018-04-16 23:03:37:539
16.343;2.545;2.065;9.24;-2.768;1.767;6.959;4.5;0.569;2.128;-1.053;1.781;-8.8;-24.0;10.8;50.31;121;2018-04-16 23:03:37:548
16.343;2.545;2.065;9.184;-2.978;1.716;6.833;6.267;-0.303;2.033;-0.811;1.33;-9.9;-22.7;10.9;50.31;132;2018-04-16 23:03:37:559
16.077;3.636;0.815;9.184;-2.978;1.716;6.833;6.267;-0.303;1.907;-0.608;0.871;-9.9;-22.7;10.9;50.31;142;2018-04-16 23:03:37:569
15.493;4.389;-0.747;9.167;-3.026;1.725;6.326;7.415;-2.472;1.708;-0.483;0.382;-10.2;-21.5;12.0;50.31;151;2018-04-16 23:03:37:578
15.493;4.389;-0.747;9.167;-3.026;1.725;6.326;7.415;-2.472;1.462;-0.452;-0.126;-10.3;-20.6;15.9;50.31;162;2018-04-16 23:03:37:589
13.748;4.778;-1.887;9.167;-3.026;1.725;6.326;7.415;-2.472;1.462;-0.452;-0.126;-10.3;-20.6;15.9;50.31;171;2018-04-16 23:03:37:598
13.154;4.149;-2.713;9.206;-2.911;1.717;4.235;7.597;-3.613;1.191;-0.484;-0.59;-10.4;-19.6;15.5;50.31;182;2018-04-16 23:03:37:609
13.154;4.149;-2.713;9.206;-2.911;1.717;4.235;7.597;-3.613;0.767;-0.579;-1.029;-10.4;-19.6;15.5;50.31;191;2018-04-16 23:03:37:618
12.598;3.393;-2.213;9.284;-2.695;1.65;3.315;6.087;-3.864;0.253;-0.547;-1.356;-9.8;-19.0;14.9;50.31;202;2018-04-16 23:03:37:629
10.543;2.569;-1.106;9.373;-2.42;1.565;0.838;4.877;-2.411;0.005;-0.4;-1.482;-9.8;-20.1;15.8;50.31;212;2018-04-16 23:03:37:639
9.816;2.379;-0.239;9.373;-2.42;1.565;0.838;4.877;-2.411;-0.133;-0.341;-1.504;-9.8;-20.1;15.8;50.31;222;2018-04-16 23:03:37:649
9.816;2.379;-0.239;9.373;-2.42;1.565;0.838;4.877;-2.411;-0.133;-0.341;-1.504;-9.4;-19.1;15.7;50.31;231;2018-04-16 23:03:37:658
9.816;2.379;-0.239;9.373;-2.42;1.565;0.838;4.877;-2.411;-0.133;-0.341;-1.504;-9.4;-19.1;15.7;50.31;242;2018-04-16 23:03:37:669
9.955;2.61;-0.049;9.464;-2.112;1.466;0.492;4.722;-1.515;-0.026;-0.514;-1.537;-9.6;-19.8;14.9;50.31;252;2018-04-16 23:03:37:679
8.339;1.126;-0.657;9.614;-1.57;1.129;-1.275;2.696;-1.786;1.002;-1.742;-1.861;-9.6;-19.8;14.9;50.31;261;2018-04-16 23:03:37:688
8.339;1.126;-0.657;9.614;-1.57;1.129;-1.275;2.696;-1.786;1.317;-2.2;-1.763;-8.7;-19.9;14.8;50.31;272;2018-04-16 23:03:37:699
6.586;-1.642;-3.542;9.702;-1.24;0.705;-3.621;-1.478;-5.765;1.317;-2.2;-1.763;-8.7;-19.9;14.8;50.31;282;2018-04-16 23:03:37:709
6.065;-4.657;-8.797;9.702;-1.24;0.705;-3.621;-1.478;-5.765;1.06;-2.649;-1.067;-7.3;-19.0;16.7;48.81;292;2018-04-16 23:03:37:719
6.065;-4.657;-8.797;9.736;-1.137;0.295;-2.861;-0.261;-4.912;-0.589;-1.608;-0.261;-7.3;-19.0;16.7;48.81;302;2018-04-16 23:03:37:729
7.689;0.14;-2.328;9.736;-1.137;0.295;-2.861;-0.261;-4.912;-1.172;-0.756;0.046;-5.5;-18.1;20.6;48.81;311;2018-04-16 23:03:37:738
11.471;-1.905;1.1;9.737;-1.159;0.112;1.733;-0.745;0.988;-1.172;-0.756;0.046;-5.5;-18.1;20.6;48.81;322;2018-04-16 23:03:37:749
11.471;-1.905;1.1;9.737;-1.159;0.112;1.733;-0.745;0.988;-0.941;-1.059;0.062;-5.5;-18.8;17.5;48.81;332;2018-04-16 23:03:37:759
9.291;-4.476;1.404;9.74;-1.138;-0.06;-1.18;-2.661;-0.662;-0.05;-0.506;-0.249;-5.5;-18.8;17.5;48.81;341;2018-04-16 23:03:37:768
6.523;-0.469;-6.343;9.74;-1.138;-0.06;-1.18;-2.661;-0.662;-0.246;-0.151;0.0;-5.0;-19.3;18.5;48.81;352;2018-04-16 23:03:37:779
6.523;-0.469;-6.343;9.734;-1.175;-0.179;-2.819;4.414;-3.544;-0.246;-0.151;0.0;-5.0;-19.3;18.5;48.81;362;2018-04-16 23:03:37:789
8.563;3.164;-0.696;9.734;-1.175;-0.179;-2.819;4.414;-3.544;-0.869;-1.379;0.597;-4.7;-18.9;20.1;48.81;371;2018-04-16 23:03:37:798
11.331;-1.082;2.963;9.7;-1.313;-0.603;1.631;0.231;3.566;-0.315;-2.332;0.838;-4.7;-18.9;20.1;48.81;382;2018-04-16 23:03:37:809
11.331;-1.082;2.963;9.7;-1.313;-0.603;1.631;0.231;3.566;0.563;-2.49;0.749;-4.7;-19.5;19.5;48.81;392;2018-04-16 23:03:37:819
10.994;-2.161;2.98;9.651;-1.437;-0.984;0.904;-0.563;3.654;1.365;-1.864;0.442;-4.7;-19.5;19.5;48.81;401;2018-04-16 23:03:37:828
8.441;-1.499;1.751;9.651;-1.437;-0.984;0.904;-0.563;3.654;1.522;-1.46;0.456;-4.0;-19.3;19.3;48.81;412;2018-04-16 23:03:37:839
8.441;-1.499;1.751;9.607;-1.577;-1.177;-1.413;-0.493;1.161;1.522;-1.46;0.456;-4.0;-19.3;19.3;48.81;422;2018-04-16 23:03:37:849
8.468;-2.11;-1.267;9.607;-1.577;-1.177;-1.413;-0.493;1.161;1.052;-0.624;0.856;-3.7;-18.2;18.6;48.81;431;2018-04-16 23:03:37:858
8.628;-0.632;-0.509;9.567;-1.799;-1.187;-0.939;1.167;0.678;0.111;0.104;1.232;-3.7;-18.2;18.6;48.81;442;2018-04-16 23:03:37:869
8.628;-0.632;-0.509;9.567;-1.799;-1.187;-0.939;1.167;0.678;-0.206;0.356;1.427;-3.1;-18.0;21.3;48.81;452;2018-04-16 23:03:37:879
9.085;-0.198;-0.148;9.521;-2.072;-1.111;-0.577;1.8;0.433;-0.206;0.356;1.427;-3.1;-18.0;21.3;48.81;461;2018-04-16 23:03:37:888
7.544;0.055;-0.887;9.521;-2.072;-1.111;-0.577;1.8;0.433;-0.208;0.574;1.594;-3.7;-18.1;19.8;48.81;472;2018-04-16 23:03:37:899
7.544;0.055;-0.887;9.448;-2.419;-1.029;-1.042;1.999;1.218;-0.205;0.421;2.067;-3.7;-18.1;19.8;48.81;482;2018-04-16 23:03:37:909
9.155;-1.458;1.344;9.448;-2.419;-1.029;-1.042;1.999;1.218;-0.081;0.206;2.384;-3.9;-18.7;20.5;48.81;491;2018-04-16 23:03:37:918
10.312;-3.428;1.528;9.32;-2.883;-0.995;0.991;-0.546;2.522;0.304;-0.072;2.602;-3.9;-18.7;20.5;48.81;502;2018-04-16 23:03:37:929
10.312;-3.428;1.528;9.32;-2.883;-0.995;0.991;-0.546;2.522;0.662;-0.398;2.768;-4.2;-18.4;20.2;48.81;512;2018-04-16 23:03:37:939
8.171;-6.359;1.27;9.11;-3.474;-1.051;-1.267;-4.616;2.505;1.016;-0.659;3.118;-4.2;-18.4;20.2;48.81;521;2018-04-16 23:03:37:948
8.599;-6.281;3.492;9.11;-3.474;-1.051;-1.267;-4.616;2.505;1.3;-0.737;3.532;-3.9;-18.2;20.2;48.81;532;2018-04-16 23:03:37:959
8.599;-6.281;3.492;8.827;-4.164;-0.957;-1.606;-1.159;3.017;1.697;-0.155;3.671;-3.9;-18.2;20.2;48.81;542;2018-04-16 23:03:37:969
5.525;-5.306;1.091;8.827;-4.164;-0.957;-1.606;-1.159;3.017;2.274;0.375;3.495;-3.5;-18.3;20.5;48.81;551;2018-04-16 23:03:37:978
3.166;-5.316;-0.426;8.518;-4.815;-0.659;-5.351;-0.501;0.232;2.274;0.375;3.495;-3.5;-18.3;20.5;48.81;562;2018-04-16 23:03:37:989
3.166;-5.316;-0.426;8.518;-4.815;-0.659;-5.351;-0.501;0.232;2.529;0.911;3.641;-3.3;-18.0;20.8;48.81;572;2018-04-16 23:03:37:999
4.257;-5.752;-0.026;8.143;-5.463;-0.158;-3.747;-0.879;0.209;2.498;1.538;3.742;-3.3;-18.0;20.8;48.81;581;2018-04-16 23:03:38:008
4.647;-7.62;0.473;8.143;-5.463;-0.158;-3.747;-0.879;0.209;2.393;1.752;3.962;-3.4;-17.8;21.1;48.81;592;2018-04-16 23:03:38:019
4.647;-7.62;0.473;7.624;-6.156;0.387;-3.402;-1.547;0.541;2.188;1.77;4.689;-3.4;-17.8;21.1;48.81;602;2018-04-16 23:03:38:029
3.759;-7.632;0.569;7.624;-6.156;0.387;-3.402;-1.547;0.541;1.857;1.547;5.293;-5.1;-16.1;21.8;49.34;611;2018-04-16 23:03:38:038
3.321;-6.899;-1.216;6.884;-6.939;0.787;-3.564;0.041;-2.003;1.857;1.547;5.293;-5.1;-16.1;21.8;49.34;622;2018-04-16 23:03:38:049
3.321;-6.899;-1.216;6.884;-6.939;0.787;-3.564;0.041;-2.003;1.396;0.254;6.002;-8.1;-13.3;22.3;49.34;632;2018-04-16 23:03:38:059
2.963;-5.473;-0.662;5.984;-7.72;0.877;-3.118;2.748;-2.046;1.08;-0.555;6.227;-8.1;-13.3;22.3;49.34;641;2018-04-16 23:03:38:068
2.087;-3.762;-0.312;5.984;-7.72;0.877;-3.118;2.748;-2.046;0.448;-1.185;6.181;-10.2;-10.9;23.0;49.34;652;2018-04-16 23:03:38:079
2.087;-3.762;-0.312;5.027;-8.392;0.686;-3.17;5.469;-0.611;-0.165;-1.637;6.105;-10.2;-10.9;23.0;49.34;662;2018-04-16 23:03:38:089
1.706;-2.794;-0.178;5.027;-8.392;0.686;-3.17;5.469;-0.611;-0.45;-1.704;5.982;-10.7;-8.7;23.7;49.34;671;2018-04-16 23:03:38:098
1.433;-2.671;0.271;4.028;-8.931;0.428;-2.595;6.26;-0.158;-0.602;-1.757;5.855;-10.7;-8.7;23.7;49.34;682;2018-04-16 23:03:38:109
1.433;-2.671;0.271;4.028;-8.931;0.428;-2.595;6.26;-0.158;-0.65;-1.646;5.817;-10.9;-7.9;22.9;49.34;692;2018-04-16 23:03:38:119
1.454;-2.488;0.412;2.978;-9.341;0.22;-1.644;6.91;0.208;-0.582;-1.444;5.79;-10.9;-7.9;22.9;49.34;701;2018-04-16 23:03:38:128
1.013;-2.257;0.291;2.978;-9.341;0.22;-1.644;6.91;0.208;-0.277;-1.24;5.698;-11.0;-6.2;24.2;49.34;712;2018-04-16 23:03:38:139
1.013;-2.257;0.291;1.909;-9.618;0.136;-1.207;7.706;-0.013;-0.277;-1.24;5.698;-11.0;-6.2;24.2;49.34;722;2018-04-16 23:03:38:149
0.707;-1.852;-0.073;1.909;-9.618;0.136;-1.207;7.706;-0.013;0.238;-1.285;5.594;-10.7;-5.4;23.5;49.34;731;2018-04-16 23:03:38:158
1.202;-2.476;-0.418;0.836;-9.769;0.192;0.366;7.293;-0.609;0.591;-1.443;5.537;-10.7;-5.4;23.5;49.34;742;2018-04-16 23:03:38:169
-3.144;-28.085;-1.371;0.228;-9.8;0.26;-3.371;-18.285;-1.631;0.718;-1.69;5.555;-10.3;-4.5;24.0;49.34;752;2018-04-16 23:03:38:179
-3.144;-28.085;-1.371;0.228;-9.8;0.26;-3.371;-18.285;-1.631;0.718;-1.69;5.555;-10.3;-4.5;24.0;49.34;761;2018-04-16 23:03:38:188
-15.299;-39.185;2.908;-1.524;-9.683;0.307;-6.985;-29.502;-0.184;-0.21;-1.801;10.761;-9.5;-2.8;24.1;49.34;772;2018-04-16 23:03:38:199
16.443;-28.888;-6.582;-1.524;-9.683;0.307;-6.985;-29.502;-0.184;-1.301;-2.258;12.79;-9.5;-2.8;24.1;49.34;782;2018-04-16 23:03:38:209
16.443;-28.888;-6.582;-2.738;-9.416;-0.058;19.033;-6.343;-2.868;-4.257;-4.925;1.317;-8.9;-0.6;25.4;49.34;791;2018-04-16 23:03:38:218
7.266;-16.26;1.077;-2.738;-9.416;-0.058;19.033;-6.343;-2.868;-4.257;-4.925;1.317;-8.9;-0.6;25.4;49.34;802;2018-04-16 23:03:38:229
-8.639;-14.223;5.4;-1.988;-9.586;-0.565;-6.651;-4.636;5.966;-4.5;-5.357;-4.654;-6.1;-4.1;24.3;49.34;812;2018-04-16 23:03:38:239
-8.639;-14.223;5.4;-1.988;-9.586;-0.565;-6.651;-4.636;5.966;-2.114;-6.976;-3.261;-6.1;-4.1;24.3;49.34;821;2018-04-16 23:03:38:248
-5.288;-5.09;7.74;-1.648;-9.66;-0.368;-3.871;4.537;7.919;-0.283;-7.223;-2.144;-5.1;-4.4;25.6;49.34;832;2018-04-16 23:03:38:259
-4.961;-4.391;6.585;-1.648;-9.66;-0.368;-3.871;4.537;7.919;0.959;-5.519;-0.96;-5.1;-4.4;25.6;49.34;842;2018-04-16 23:03:38:269
-4.961;-4.391;6.585;-1.547;-9.684;0.019;-1.914;6.904;5.429;1.224;-4.049;-0.48;-1.8;-4.1;25.7;49.34;851;2018-04-16 23:03:38:278
-3.288;-3.084;5.046;-1.547;-9.684;0.019;-1.914;6.904;5.429;1.224;-4.049;-0.48;-1.8;-4.1;25.7;49.34;862;2018-04-16 23:03:38:289
-4.584;-6.094;4.676;-1.477;-9.69;0.318;-3.107;3.595;4.358;1.268;-1.822;-0.364;-0.2;-3.8;25.1;49.34;872;2018-04-16 23:03:38:299
-4.584;-6.094;4.676;-1.477;-9.69;0.318;-3.107;3.595;4.358;0.914;0.61;-0.346;-0.2;-3.8;25.1;49.34;881;2018-04-16 23:03:38:308
-5.986;-9.44;0.791;-1.427;-9.692;0.446;-4.883;-0.41;-1.322;0.705;1.719;-0.37;1.3;-2.3;23.9;49.34;892;2018-04-16 23:03:38:319
-6.664;-11.378;-3.15;-1.427;-9.692;0.446;-4.883;-0.41;-1.322;0.705;1.719;-0.37;1.3;-2.3;23.9;49.34;902;2018-04-16 23:03:38:329
-6.664;-11.378;-3.15;-1.39;-9.687;0.638;-4.236;-1.421;-4.279;1.179;1.106;-0.276;1.5;-0.8;24.6;49.34;911;2018-04-16 23:03:38:338
-4.695;-10.685;-3.658;-1.39;-9.687;0.638;-4.236;-1.421;-4.279;1.288;0.578;-0.083;1.5;-0.8;24.6;49.34;922;2018-04-16 23:03:38:349
-3.144;-10.106;-2.67;-1.398;-9.672;0.822;-1.745;-0.434;-3.492;1.063;0.414;0.012;0.9;-1.3;25.7;49.34;932;2018-04-16 23:03:38:359
-3.144;-10.106;-2.67;-1.398;-9.672;0.822;-1.745;-0.434;-3.492;0.613;0.628;0.055;0.9;-1.3;25.7;49.34;941;2018-04-16 23:03:38:368
-2.417;-9.451;-1.663;-1.449;-9.667;0.784;-0.879;0.351;-2.267;0.075;1.065;0.108;1.5;-0.1;24.4;67.35;952;2018-04-16 23:03:38:379
-2.252;-9.203;-1.314;-1.449;-9.667;0.784;-0.879;0.351;-2.267;-0.593;1.598;0.26;1.5;-0.1;24.4;67.35;962;2018-04-16 23:03:38:389
-2.252;-9.203;-1.314;-1.541;-9.668;0.574;-0.675;0.469;-1.747;-0.892;1.702;0.348;0.9;-0.9;26.5;67.35;971;2018-04-16 23:03:38:398
-2.278;-9.307;-0.956;-1.541;-9.668;0.574;-0.675;0.469;-1.747;-0.892;1.702;0.348;0.9;-0.9;26.5;67.35;982;2018-04-16 23:03:38:409
-2.452;-9.778;-0.229;-1.631;-9.666;0.296;-0.821;-0.112;-0.524;-1.159;1.553;0.358;0.8;-0.9;25.5;67.35;992;2018-04-16 23:03:38:419
-2.452;-9.778;-0.229;-1.631;-9.666;0.296;-0.821;-0.112;-0.524;-1.203;1.374;0.348;0.8;-0.9;25.5;67.35;1001;2018-04-16 23:03:38:428
-2.328;-9.917;0.646;-1.703;-9.658;0.043;-0.52;-0.24;0.833;-1.136;1.18;0.34;0.2;-1.1;24.8;67.35;1012;2018-04-16 23:03:38:439
-2.088;-9.822;1.258;-1.703;-9.658;0.043;-0.52;-0.24;0.833;-0.893;0.931;0.296;0.2;-1.1;24.8;67.35;1022;2018-04-16 23:03:38:449
-2.088;-9.822;1.258;-1.756;-9.647;-0.128;-0.194;-0.116;1.549;-0.685;0.811;0.264;-0.4;-1.0;28.3;67.35;1032;2018-04-16 23:03:38:459
-1.877;-9.677;1.44;-1.756;-9.647;-0.128;-0.194;-0.116;1.549;-0.476;0.706;0.244;-0.4;-1.0;28.3;67.35;1041;2018-04-16 23:03:38:468
-1.828;-9.607;1.277;-1.798;-9.638;-0.211;-0.023;0.041;1.375;-0.299;0.612;0.228;-0.5;-1.2;27.9;67.35;1052;2018-04-16 23:03:38:479
-1.814;-9.535;0.838;-1.798;-9.638;-0.211;-0.023;0.041;1.375;-0.299;0.612;0.228;-0.5;-1.2;27.9;67.35;1062;2018-04-16 23:03:38:489
-1.744;-9.485;0.636;-1.838;-9.63;-0.245;0.094;0.145;0.88;-0.123;0.439;0.227;-0.5;-1.6;27.1;67.35;1072;2018-04-16 23:03:38:499
-1.744;-9.485;0.636;-1.838;-9.63;-0.245;0.094;0.145;0.88;-0.099;0.386;0.228;-0.5;-1.6;27.1;67.35;1081;2018-04-16 23:03:38:508
-1.557;-9.562;0.455;-1.873;-9.622;-0.268;0.341;-0.032;0.669;-0.087;0.349;0.213;0.0;-1.3;26.6;67.35;1092;2018-04-16 23:03:38:519
-1.447;-9.697;0.411;-1.873;-9.622;-0.268;0.341;-0.032;0.669;-0.082;0.313;0.188;0.0;-1.3;26.6;67.35;1101;2018-04-16 23:03:38:528
-1.447;-9.697;0.411;-1.9;-9.617;-0.282;0.491;-0.166;0.789;-0.055;0.27;0.172;0.8;-1.3;26.2;67.35;1112;2018-04-16 23:03:38:539
-1.326;-9.772;0.548;-1.9;-9.617;-0.282;0.491;-0.166;0.789;0.005;0.231;0.16;0.8;-1.3;26.2;67.35;1121;2018-04-16 23:03:38:548
-1.191;-9.604;0.454;-1.915;-9.614;-0.263;0.724;0.01;0.717;0.094;0.202;0.128;1.0;-1.2;26.4;67.35;1132;2018-04-16 23:03:38:559
-1.191;-9.604;0.454;-1.915;-9.614;-0.263;0.724;0.01;0.717;0.17;0.171;0.075;1.0;-1.2;26.4;67.35;1141;2018-04-16 23:03:38:568
-1.302;-9.492;0.217;-1.917;-9.615;-0.225;0.6;0.137;0.407;0.202;0.12;0.045;0.9;-1.0;26.6;67.35;1152;2018-04-16 23:03:38:579
-1.402;-9.523;0.136;-1.917;-9.615;-0.225;0.6;0.137;0.407;0.205;0.043;0.018;0.9;-1.0;26.6;67.35;1162;2018-04-16 23:03:38:589
-1.402;-9.523;0.136;-1.911;-9.617;-0.18;0.29;0.066;0.294;0.21;-0.042;-0.01;0.7;-0.9;26.8;67.35;1171;2018-04-16 23:03:38:598
-1.802;-9.591;0.11;-1.911;-9.617;-0.18;0.29;0.066;0.294;0.257;-0.176;-0.042;0.7;-0.9;26.8;67.35;1182;2018-04-16 23:03:38:609
-2.035;-9.553;0.035;-1.904;-9.619;-0.115;-0.131;0.066;0.15;0.303;-0.275;-0.04;0.3;-0.9;27.1;67.35;1191;2018-04-16 23:03:38:618
-2.035;-9.553;0.035;-1.904;-9.619;-0.115;-0.131;0.066;0.15;0.303;-0.275;-0.04;0.3;-0.9;27.1;67.35;1202;2018-04-16 23:03:38:629
-2.239;-9.542;0.036;-1.898;-9.621;-0.034;-0.427;0.095;0.078;0.335;-0.397;-0.054;0.0;-0.9;27.4;67.35;1211;2018-04-16 23:03:38:638
-2.473;-9.515;0.043;-1.898;-9.621;-0.034;-0.427;0.095;0.078;0.338;-0.437;-0.062;0.0;-0.9;27.4;67.35;1222;2018-04-16 23:03:38:649
-2.486;-9.449;-0.005;-1.893;-9.622;0.049;-0.593;0.173;-0.054;0.338;-0.458;-0.053;-0.3;-0.9;27.7;67.35;1232;2018-04-16 23:03:38:659
-2.486;-9.449;-0.005;-1.893;-9.622;0.049;-0.593;0.173;-0.054;0.342;-0.475;-0.044;-0.3;-0.9;27.7;67.35;1242;2018-04-16 23:03:38:669
-2.575;-9.6;-0.069;-1.889;-9.622;0.133;-0.716;0.014;-0.172;0.348;-0.489;-0.049;-0.5;-1.0;27.8;67.35;1251;2018-04-16 23:03:38:678
-2.602;-9.72;-0.261;-1.889;-9.622;0.133;-0.716;0.014;-0.172;0.348;-0.479;-0.042;-0.5;-1.0;27.8;67.35;1262;2018-04-16 23:03:38:689
-2.602;-9.72;-0.261;-1.887;-9.621;0.211;-0.653;-0.127;-0.8;0.342;-0.446;-0.032;-0.8;-1.0;27.9;47.16;1271;2018-04-16 23:03:38:698
-2.498;-9.713;-0.682;-1.887;-9.621;0.211;-0.653;-0.127;-0.8;0.313;-0.452;-0.02;-0.8;-1.0;27.9;47.16;1282;2018-04-16 23:03:38:709
-2.326;-9.534;-0.837;-1.889;-9.619;0.27;-0.437;0.085;-1.107;0.27;-0.459;-0.004;-0.9;-0.9;28.0;47.16;1291;2018-04-16 23:03:38:718
-2.326;-9.534;-0.837;-1.889;-9.619;0.27;-0.437;0.085;-1.107;0.191;-0.446;0.006;-0.9;-0.9;28.0;47.16;1302;2018-04-16 23:03:38:729
-2.257;-9.488;-0.779;-1.896;-9.617;0.285;-0.336;0.136;-1.03;0.068;-0.382;0.017;-1.0;-0.9;28.2;47.16;1312;2018-04-16 23:03:38:739
-2.187;-9.438;-0.611;-1.896;-9.617;0.285;-0.336;0.136;-1.03;-0.16;-0.202;0.035;-1.0;-0.9;28.2;47.16;1322;2018-04-16 23:03:38:749
-2.187;-9.438;-0.611;-1.908;-9.616;0.236;-0.315;0.189;-0.696;-0.312;-0.076;0.05;-1.1;-0.8;28.3;47.16;1332;2018-04-16 23:03:38:759
-2.237;-9.438;-0.378;-1.908;-9.616;0.236;-0.315;0.189;-0.696;-0.419;0.007;0.062;-1.1;-0.8;28.3;47.16;1342;2018-04-16 23:03:38:769
-2.271;-9.442;-0.072;-1.926;-9.615;0.144;-0.345;0.173;-0.215;-0.474;0.038;0.076;-1.1;-0.7;28.1;47.16;1352;2018-04-16 23:03:38:779
-2.271;-9.442;-0.072;-1.926;-9.615;0.144;-0.345;0.173;-0.215;-0.485;0.028;0.083;-1.1;-0.7;28.1;47.16;1361;2018-04-16 23:03:38:788
-2.279;-9.451;0.192;-1.945;-9.612;0.06;-0.34;0.128;0.216;-0.457;0.0;0.084;-1.0;-0.6;28.2;47.16;1372;2018-04-16 23:03:38:799
-2.277;-9.576;0.365;-1.945;-9.612;0.06;-0.34;0.128;0.216;-0.393;-0.048;0.084;-1.0;-0.6;28.2;47.16;1382;2018-04-16 23:03:38:809
-2.277;-9.576;0.365;-1.962;-9.608;0.009;-0.377;-0.048;0.402;-0.312;-0.111;0.076;-1.0;-0.6;28.0;47.16;1391;2018-04-16 23:03:38:818
-2.356;-9.644;0.447;-1.962;-9.608;0.009;-0.377;-0.048;0.402;-0.233;-0.15;0.071;-1.0;-0.6;28.0;47.16;1401;2018-04-16 23:03:38:828
-2.325;-9.48;0.476;-1.978;-9.605;-0.018;-0.347;0.125;0.495;-0.192;-0.145;0.066;-0.9;-0.6;28.0;47.16;1412;2018-04-16 23:03:38:839
-2.325;-9.48;0.476;-1.978;-9.605;-0.018;-0.347;0.125;0.495;-0.187;-0.098;0.064;-0.9;-0.6;28.0;47.16;1421;2018-04-16 23:03:38:848
-2.245;-9.306;0.52;-1.991;-9.602;-0.054;-0.254;0.296;0.573;-0.21;-0.01;0.055;-0.9;-0.6;27.9;47.16;1432;2018-04-16 23:03:38:859
-2.218;-9.293;0.551;-1.991;-9.602;-0.054;-0.254;0.296;0.573;-0.242;0.081;0.053;-0.9;-0.6;27.9;47.16;1441;2018-04-16 23:03:38:868
-2.218;-9.293;0.551;-2.002;-9.599;-0.1;-0.262;0.225;0.702;-0.248;0.149;0.05;-0.8;-0.5;27.8;47.16;1452;2018-04-16 23:03:38:879
-2.271;-9.4;0.619;-2.002;-9.599;-0.1;-0.262;0.225;0.702;-0.225;0.193;0.05;-0.8;-0.5;27.8;47.16;1461;2018-04-16 23:03:38:888
-2.294;-9.457;0.579;-2.012;-9.597;-0.132;-0.282;0.14;0.712;-0.175;0.208;0.044;-0.7;-0.5;27.6;47.16;1472;2018-04-16 23:03:38:899
-2.294;-9.457;0.579;-2.012;-9.597;-0.132;-0.282;0.14;0.712;-0.082;0.177;0.028;-0.7;-0.5;27.6;47.16;1481;2018-04-16 23:03:38:908
-2.395;-9.585;0.455;-2.018;-9.596;-0.124;-0.396;0.008;0.546;0.027;0.108;0.013;-0.6;-0.5;27.4;47.16;1492;2018-04-16 23:03:38:919
-2.474;-9.576;0.341;-2.018;-9.596;-0.124;-0.396;0.008;0.546;0.108;0.045;-0.002;-0.6;-0.5;27.4;47.16;1502;2018-04-16 23:03:38:929
-2.474;-9.576;0.341;-2.026;-9.595;-0.085;-0.53;0.073;0.325;0.153;0.002;-0.012;-0.5;-0.6;27.2;47.16;1512;2018-04-16 23:03:38:939
-2.646;-9.468;0.214;-2.026;-9.595;-0.085;-0.53;0.073;0.325;0.166;-0.028;-0.022;-0.5;-0.6;27.2;47.16;1522;2018-04-16 23:03:38:949
-2.841;-9.321;0.271;-2.042;-9.592;-0.036;-0.799;0.271;0.307;0.189;-0.094;-0.026;-0.4;-0.6;27.0;47.16;1532;2018-04-16 23:03:38:959
-2.841;-9.321;0.271;-2.042;-9.592;-0.036;-0.799;0.271;0.307;0.189;-0.094;-0.026;-0.4;-0.6;27.0;47.16;1542;2018-04-16 23:03:38:969
-3.0;-9.045;0.289;-2.042;-9.592;-0.036;-0.799;0.271;0.307;0.254;-0.151;-0.022;-0.3;-0.6;27.0;47.16;1551;2018-04-16 23:03:38:978
-3.077;-9.151;0.273;-2.051;-9.59;0.025;-0.997;0.512;0.265;0.304;-0.173;-0.012;-0.3;-0.6;26.9;47.16;1562;2018-04-16 23:03:38:989
-2.927;-9.333;0.148;-2.063;-9.587;0.096;-0.864;0.254;0.052;0.336;-0.162;0.032;-0.3;-0.6;26.9;47.16;1571;2018-04-16 23:03:38:998
-2.927;-9.333;0.148;-2.063;-9.587;0.096;-0.864;0.254;0.052;0.336;-0.162;0.032;-0.3;-0.6;27.0;47.16;1582;2018-04-16 23:03:39:009
-2.538;-9.5;0.0;-2.084;-9.581;0.162;-0.371;0.081;-0.169;0.32;-0.133;0.093;-0.3;-0.6;27.0;42.74;1591;2018-04-16 23:03:39:018
-2.219;-9.454;-0.017;-2.084;-9.581;0.162;-0.371;0.081;-0.169;0.301;-0.148;0.101;-0.2;-0.6;26.8;42.74;1602;2018-04-16 23:03:39:029
-2.219;-9.454;-0.017;-2.103;-9.576;0.225;0.016;0.167;-0.192;0.308;-0.16;0.094;-0.2;-0.6;26.8;42.74;1611;2018-04-16 23:03:39:038
-2.034;-9.392;0.059;-2.103;-9.576;0.225;0.016;0.167;-0.192;0.315;-0.156;0.077;-0.2;-0.6;26.8;42.74;1622;2018-04-16 23:03:39:049
-2.034;-9.392;0.059;-2.103;-9.576;0.225;0.016;0.167;-0.192;0.318;-0.125;0.059;-0.2;-0.6;26.8;42.74;1631;2018-04-16 23:03:39:058
-1.986;-9.413;0.123;-2.113;-9.572;0.288;0.127;0.159;-0.165;0.296;-0.049;0.04;-0.2;-0.7;26.8;42.74;1642;2018-04-16 23:03:39:069
-1.987;-9.507;0.141;-2.117;-9.57;0.327;0.115;0.023;-0.202;0.238;0.062;0.022;-0.2;-0.7;26.8;42.74;1652;2018-04-16 23:03:39:079
-2.057;-9.542;0.068;-2.117;-9.57;0.327;0.115;0.023;-0.202;0.136;0.221;-0.012;-0.2;-0.7;26.7;42.74;1662;2018-04-16 23:03:39:089
-2.057;-9.542;0.068;-2.114;-9.57;0.339;-0.171;-0.007;-0.26;0.117;0.246;-0.043;-0.2;-0.7;26.7;42.74;1672;2018-04-16 23:03:39:099
-2.428;-9.542;0.121;-2.114;-9.57;0.339;-0.171;-0.007;-0.26;0.128;0.238;-0.053;-0.1;-0.6;26.7;42.74;1682;2018-04-16 23:03:39:109
-2.714;-9.427;0.204;-2.11;-9.57;0.353;-0.604;0.143;-0.15;0.143;0.238;-0.057;-0.1;-0.6;26.7;42.74;1691;2018-04-16 23:03:39:118
-2.714;-9.427;0.204;-2.11;-9.57;0.353;-0.604;0.143;-0.15;0.143;0.238;-0.057;-0.1;-0.5;26.8;42.74;1702;2018-04-16 23:03:39:129
-2.872;-9.388;0.247;-2.112;-9.569;0.367;-0.797;0.177;-0.132;0.136;0.268;-0.043;-0.1;-0.5;26.8;42.74;1711;2018-04-16 23:03:39:138
-2.898;-9.415;0.17;-2.112;-9.569;0.367;-0.797;0.177;-0.132;0.121;0.297;-0.022;-0.1;-0.5;26.7;42.74;1722;2018-04-16 23:03:39:149
-2.898;-9.415;0.17;-2.121;-9.567;0.374;-0.74;0.096;-0.307;0.11;0.302;-0.004;-0.1;-0.5;26.7;42.74;1732;2018-04-16 23:03:39:159
-2.81;-9.528;0.024;-2.121;-9.567;0.374;-0.74;0.096;-0.307;0.1;0.27;0.02;0.0;-0.4;26.9;42.74;1742;2018-04-16 23:03:39:169
-2.573;-9.552;-0.071;-2.135;-9.564;0.379;-0.437;0.012;-0.45;0.092;0.205;0.043;0.0;-0.4;26.9;42.74;1752;2018-04-16 23:03:39:179
-2.573;-9.552;-0.071;-2.135;-9.564;0.379;-0.437;0.012;-0.45;0.081;0.12;0.061;0.0;-0.3;27.1;42.74;1762;2018-04-16 23:03:39:189
-2.252;-9.48;-0.096;-2.15;-9.56;0.382;-0.04;0.088;-0.451;0.053;0.053;0.068;0.0;-0.3;27.1;42.74;1771;2018-04-16 23:03:39:198
-2.106;-9.477;-0.025;-2.15;-9.56;0.382;-0.04;0.088;-0.451;0.022;-0.01;0.065;-0.1;-0.3;27.2;42.74;1782;2018-04-16 23:03:39:209
-2.106;-9.477;-0.025;-2.161;-9.558;0.374;0.085;0.043;-0.331;-0.011;-0.048;0.057;-0.1;-0.3;27.2;42.74;1791;2018-04-16 23:03:39:218
-2.066;-9.534;0.099;-2.161;-9.558;0.374;0.085;0.043;-0.331;-0.028;-0.077;0.05;0.0;-0.2;27.4;42.74;1802;2018-04-16 23:03:39:229
-2.094;-9.588;0.196;-2.165;-9.558;0.363;0.072;-0.03;-0.167;-0.039;-0.082;0.04;0.0;-0.2;27.4;42.74;1811;2018-04-16 23:03:39:238
-2.094;-9.588;0.196;-2.165;-9.558;0.363;0.072;-0.03;-0.167;-0.028;-0.081;0.031;-0.1;0.0;27.5;42.74;1822;2018-04-16 23:03:39:249
-2.131;-9.586;0.23;-2.168;-9.557;0.36;0.03;-0.004;-0.141;-0.004;-0.067;0.022;-0.1;0.0;27.5;42.74;1832;2018-04-16 23:03:39:259
-2.142;-9.503;0.19;-2.168;-9.557;0.36;0.03;-0.004;-0.141;0.005;-0.034;0.015;-0.1;0.0;27.5;42.74;1842;2018-04-16 23:03:39:269
-2.142;-9.503;0.19;-2.171;-9.557;0.35;-0.037;0.127;-0.204;-0.011;0.026;0.006;-0.1;0.0;27.5;42.74;1852;2018-04-16 23:03:39:279
-2.229;-9.401;0.138;-2.171;-9.557;0.35;-0.037;0.127;-0.204;-0.029;0.088;0.0;-0.1;0.0;27.5;42.74;1861;2018-04-16 23:03:39:288
-2.377;-9.366;0.182;-2.177;-9.556;0.333;-0.2;0.19;-0.151;-0.035;0.13;-0.006;-0.1;0.0;27.5;42.74;1872;2018-04-16 23:03:39:299
-2.377;-9.366;0.182;-2.177;-9.556;0.333;-0.2;0.19;-0.151;-0.035;0.149;-0.006;-0.1;0.1;27.6;42.74;1881;2018-04-16 23:03:39:308
-2.496;-9.312;0.236;-2.186;-9.555;0.318;-0.334;0.25;-0.055;-0.034;0.167;-0.004;-0.1;0.1;27.6;42.74;1892;2018-04-16 23:03:39:319
-2.61;-9.288;0.333;-2.186;-9.555;0.318;-0.334;0.25;-0.055;-0.031;0.18;-0.001;-0.1;0.1;27.8;42.74;1902;2018-04-16 23:03:39:329
-2.61;-9.288;0.333;-2.196;-9.553;0.308;-0.476;0.268;0.042;-0.017;0.194;0.005;-0.1;0.1;27.8;45.73;1912;2018-04-16 23:03:39:339
-2.713;-9.319;0.35;-2.196;-9.553;0.308;-0.476;0.268;0.042;0.013;0.195;0.011;-0.2;0.2;27.8;45.73;1921;2018-04-16 23:03:39:348
-2.795;-9.524;0.296;-2.207;-9.55;0.311;-0.589;0.026;-0.015;0.055;0.177;0.016;-0.2;0.2;27.8;45.73;1932;2018-04-16 23:03:39:359
-2.795;-9.524;0.296;-2.207;-9.55;0.311;-0.589;0.026;-0.015;0.094;0.15;0.028;-0.2;0.2;27.8;45.73;1941;2018-04-16 23:03:39:368
-2.619;-9.635;0.174;-2.218;-9.547;0.326;-0.318;-0.059;-0.17;0.116;0.127;0.039;-0.2;0.2;27.8;45.73;1952;2018-04-16 23:03:39:379
-2.37;-9.499;0.095;-2.218;-9.547;0.326;-0.318;-0.059;-0.17;0.11;0.111;0.048;-0.3;0.2;27.8;45.73;1961;2018-04-16 23:03:39:388
-2.37;-9.499;0.095;-2.228;-9.544;0.336;-0.08;0.134;-0.282;0.09;0.103;0.043;-0.3;0.2;27.8;45.73;1972;2018-04-16 23:03:39:399
-2.337;-9.407;0.055;-2.228;-9.544;0.336;-0.08;0.134;-0.282;0.071;0.1;0.032;-0.4;0.3;27.8;45.73;1982;2018-04-16 23:03:39:409
-2.461;-9.321;0.089;-2.237;-9.542;0.341;-0.224;0.221;-0.252;0.065;0.092;0.026;-0.4;0.3;27.8;45.73;1992;2018-04-16 23:03:39:419
-2.461;-9.321;0.089;-2.237;-9.542;0.341;-0.224;0.221;-0.252;0.066;0.095;0.027;-0.5;0.4;27.7;45.73;2002;2018-04-16 23:03:39:429
-2.496;-9.196;0.17;-2.247;-9.54;0.343;-0.247;0.353;-0.148;0.057;0.12;0.021;-0.5;0.4;27.7;45.73;2011;2018-04-16 23:03:39:438
-2.436;-9.258;0.19;-2.247;-9.54;0.343;-0.247;0.353;-0.148;0.032;0.181;0.027;-0.6;0.4;27.7;45.73;2021;2018-04-16 23:03:39:448
-2.436;-9.258;0.19;-2.256;-9.538;0.329;-0.051;0.162;-0.127;-0.011;0.243;0.033;-0.6;0.4;27.7;45.73;2032;2018-04-16 23:03:39:459
-2.254;-9.436;0.212;-2.256;-9.538;0.329;-0.051;0.162;-0.127;-0.049;0.279;0.032;-0.6;0.4;27.7;45.73;2041;2018-04-16 23:03:39:468
-2.215;-9.513;0.311;-2.262;-9.538;0.296;0.048;0.024;0.015;-0.098;0.292;0.026;-0.6;0.4;27.7;45.73;2052;2018-04-16 23:03:39:479
-2.215;-9.513;0.311;-2.262;-9.538;0.296;0.048;0.024;0.015;-0.149;0.294;0.021;-0.7;0.4;27.7;45.73;2062;2018-04-16 23:03:39:489
-2.187;-9.452;0.395;-2.266;-9.538;0.25;0.11;0.09;0.211;-0.188;0.279;0.021;-0.7;0.4;27.7;45.73;2072;2018-04-16 23:03:39:499
-2.108;-9.401;0.588;-2.266;-9.538;0.25;0.11;0.09;0.211;-0.213;0.249;0.012;-0.8;0.4;27.7;45.73;2082;2018-04-16 23:03:39:509
-2.108;-9.401;0.588;-2.265;-9.539;0.202;0.138;0.152;0.524;-0.222;0.222;-0.005;-0.8;0.4;27.7;45.73;2091;2018-04-16 23:03:39:518
-2.162;-9.36;0.816;-2.265;-9.539;0.202;0.138;0.152;0.524;-0.219;0.215;-0.027;-0.8;0.4;27.6;45.73;2102;2018-04-16 23:03:39:529
-2.331;-9.272;0.912;-2.256;-9.542;0.162;-0.075;0.271;0.751;-0.202;0.227;-0.053;-0.8;0.4;27.6;45.73;2111;2018-04-16 23:03:39:538
-2.331;-9.272;0.912;-2.256;-9.542;0.162;-0.075;0.271;0.751;-0.144;0.232;-0.076;-0.9;0.4;27.6;45.73;2122;2018-04-16 23:03:39:549
-2.595;-9.257;0.852;-2.241;-9.546;0.15;-0.451;0.241;0.677;-0.056;0.206;-0.099;-0.9;0.4;27.6;45.73;2132;2018-04-16 23:03:39:559
-2.844;-9.501;0.775;-2.241;-9.546;0.15;-0.451;0.241;0.677;0.051;0.166;-0.111;-1.0;0.4;27.6;45.73;2141;2018-04-16 23:03:39:568
-2.844;-9.501;0.775;-2.226;-9.549;0.173;-0.726;-0.164;0.457;0.153;0.137;-0.099;-1.0;0.4;27.6;45.73;2152;2018-04-16 23:03:39:579
-3.007;-9.816;0.469;-2.226;-9.549;0.173;-0.726;-0.164;0.457;0.177;0.128;-0.086;-1.1;0.3;27.7;45.73;2162;2018-04-16 23:03:39:589
-3.168;-10.001;0.057;-2.213;-9.551;0.209;-0.954;-0.449;-0.152;0.231;0.028;-0.075;-1.1;0.3;27.7;45.73;2172;2018-04-16 23:03:39:599
-3.168;-10.001;0.057;-2.213;-9.551;0.209;-0.954;-0.449;-0.152;0.332;-0.172;-0.054;-1.2;0.3;27.7;45.73;2182;2018-04-16 23:03:39:609
-2.975;-9.711;-0.227;-2.211;-9.55;0.293;-0.614;-0.018;-0.564;0.412;-0.381;-0.024;-1.2;0.3;27.7;45.73;2192;2018-04-16 23:03:39:619
-2.576;-9.307;-0.383;-2.211;-9.55;0.293;-0.614;-0.018;-0.564;0.414;-0.503;0.006;-1.3;0.3;27.5;45.73;2202;2018-04-16 23:03:39:629
-2.576;-9.307;-0.383;-2.215;-9.546;0.372;-0.262;0.348;-0.767;0.341;-0.524;0.017;-1.3;0.3;27.5;45.73;2212;2018-04-16 23:03:39:639
-2.461;-9.189;-0.381;-2.215;-9.546;0.372;-0.262;0.348;-0.767;0.217;-0.443;0.027;-1.4;0.4;27.5;45.73;2221;2018-04-16 23:03:39:648
-2.434;-9.273;-0.281;-2.223;-9.543;0.39;-0.211;0.271;-0.671;0.073;-0.288;0.037;-1.4;0.4;27.5;45.73;2232;2018-04-16 23:03:39:659
-2.434;-9.273;-0.281;-2.223;-9.543;0.39;-0.211;0.271;-0.671;-0.064;-0.105;0.051;-1.5;0.4;27.3;45.73;2241;2018-04-16 23:03:39:668
-2.284;-9.457;-0.184;-2.235;-9.542;0.352;-0.016;0.034;-0.485;-0.16;0.061;0.054;-1.5;0.4;27.3;48.79;2252;2018-04-16 23:03:39:679
-2.209;-9.561;0.002;-2.235;-9.542;0.352;-0.016;0.034;-0.485;-0.215;0.219;0.037;-1.5;0.4;27.4;48.79;2262;2018-04-16 23:03:39:689
-2.209;-9.561;0.002;-2.242;-9.542;0.296;0.012;-0.02;-0.167;-0.224;0.291;0.024;-1.5;0.4;27.4;48.79;2272;2018-04-16 23:03:39:699
-2.235;-9.531;0.202;-2.242;-9.542;0.296;0.012;-0.02;-0.167;-0.224;0.346;0.021;-1.6;0.4;27.3;48.79;2282;2018-04-16 23:03:39:709
-2.204;-9.422;0.348;-2.247;-9.543;0.237;0.043;0.12;0.111;-0.227;0.387;0.016;-1.6;0.4;27.3;48.79;2291;2018-04-16 23:03:39:718
-2.204;-9.422;0.348;-2.247;-9.543;0.237;0.043;0.12;0.111;-0.225;0.398;0.012;-1.6;0.4;27.4;48.79;2302;2018-04-16 23:03:39:729
-2.24;-9.376;0.493;-2.251;-9.543;0.181;0.012;0.171;0.35;-0.215;0.38;0.012;-1.6;0.4;27.4;48.79;2312;2018-04-16 23:03:39:739
-2.271;-9.369;0.596;-2.251;-9.543;0.181;0.012;0.171;0.35;-0.215;0.38;0.012;-1.7;0.4;27.5;48.79;2321;2018-04-16 23:03:39:748
-2.271;-9.369;0.596;-2.254;-9.543;0.131;-0.034;0.173;0.525;-0.208;0.334;0.01;-1.7;0.4;27.5;48.79;2332;2018-04-16 23:03:39:759
-2.303;-9.366;0.662;-2.254;-9.543;0.131;-0.034;0.173;0.525;-0.208;0.312;0.012;-1.8;0.4;27.4;48.79;2341;2018-04-16 23:03:39:768
-2.33;-9.406;0.698;-2.257;-9.543;0.087;-0.072;0.137;0.611;-0.192;0.291;0.009;-1.8;0.4;27.4;48.79;2352;2018-04-16 23:03:39:779
-2.33;-9.406;0.698;-2.257;-9.543;0.087;-0.072;0.137;0.611;-0.164;0.264;0.004;-1.8;0.5;27.4;48.79;2361;2018-04-16 23:03:39:788
-2.442;-9.483;0.661;-2.257;-9.543;0.061;-0.201;0.056;0.57;-0.117;0.217;-0.006;-1.8;0.5;27.4;48.79;2372;2018-04-16 23:03:39:799
-2.513;-9.454;0.557;-2.257;-9.543;0.061;-0.201;0.056;0.57;-0.062;0.16;-0.013;-1.9;0.5;27.4;48.79;2382;2018-04-16 23:03:39:809
-2.513;-9.454;0.557;-2.257;-9.543;0.06;-0.316;0.153;0.419;-0.013;0.089;-0.018;-1.9;0.5;27.4;48.79;2391;2018-04-16 23:03:39:818
-2.593;-9.379;0.438;-2.257;-9.543;0.06;-0.316;0.153;0.419;0.026;0.015;-0.017;-1.9;0.5;27.5;48.79;2402;2018-04-16 23:03:39:829
-2.647;-9.352;0.371;-2.261;-9.542;0.077;-0.386;0.19;0.294;0.048;-0.059;-0.012;-1.9;0.5;27.5;48.79;2412;2018-04-16 23:03:39:839
-2.647;-9.352;0.371;-2.261;-9.542;0.077;-0.386;0.19;0.294;0.065;-0.126;-0.002;-2.0;0.5;27.6;48.79;2422;2018-04-16 23:03:39:849
-2.61;-9.407;0.359;-2.269;-9.54;0.107;-0.316;0.139;0.267;0.084;-0.209;0.015;-2.0;0.5;27.6;48.79;2432;2018-04-16 23:03:39:859
-2.496;-9.427;0.376;-2.269;-9.54;0.107;-0.316;0.139;0.267;0.095;-0.247;0.024;-2.0;0.6;27.6;48.79;2441;2018-04-16 23:03:39:868
-2.496;-9.427;0.376;-2.276;-9.538;0.141;-0.127;0.068;0.238;0.108;-0.265;0.029;-2.0;0.6;27.6;48.79;2452;2018-04-16 23:03:39:879
-2.345;-9.473;0.375;-2.276;-9.538;0.141;-0.127;0.068;0.238;0.115;-0.271;0.031;-2.0;0.5;27.6;48.79;2462;2018-04-16 23:03:39:889
-2.286;-9.518;0.328;-2.279;-9.536;0.178;-0.007;0.018;0.15;0.123;-0.268;0.021;-2.0;0.5;27.6;48.79;2471;2018-04-16 23:03:39:898
-2.286;-9.518;0.328;-2.279;-9.536;0.178;-0.007;0.018;0.15;0.133;-0.259;0.013;-2.0;0.6;27.7;48.79;2482;2018-04-16 23:03:39:909
-2.267;-9.548;0.267;-2.28;-9.536;0.216;0.014;-0.024;0.05;0.138;-0.246;0.009;-2.0;0.6;27.7;48.79;2491;2018-04-16 23:03:39:918
-2.279;-9.556;0.209;-2.28;-9.536;0.216;0.014;-0.024;0.05;0.138;-0.227;0.0;-2.0;0.5;27.8;48.79;2502;2018-04-16 23:03:39:929
-2.279;-9.556;0.209;-2.278;-9.535;0.249;-0.075;0.004;-0.065;0.127;-0.203;-0.009;-2.0;0.5;27.8;48.79;2512;2018-04-16 23:03:39:939
-2.392;-9.529;0.158;-2.278;-9.535;0.249;-0.075;0.004;-0.065;0.119;-0.177;-0.013;-1.9;0.5;27.9;48.79;2521;2018-04-16 23:03:39:948
-2.484;-9.491;0.142;-2.276;-9.535;0.274;-0.208;0.044;-0.132;0.11;-0.144;-0.016;-1.9;0.5;27.9;48.79;2532;2018-04-16 23:03:39:959
-2.484;-9.491;0.142;-2.276;-9.535;0.274;-0.208;0.044;-0.132;0.089;-0.11;-0.013;-1.9;0.5;28.2;48.79;2542;2018-04-16 23:03:39:969
-2.503;-9.465;0.127;-2.277;-9.534;0.289;-0.239;0.077;-0.142;0.067;-0.077;-0.009;-1.9;0.5;28.2;48.79;2552;2018-04-16 23:03:39:979
-2.501;-9.434;0.154;-2.277;-9.534;0.289;-0.239;0.077;-0.142;0.048;-0.039;-0.005;-1.9;0.4;28.2;48.79;2562;2018-04-16 23:03:39:989
-2.501;-9.434;0.154;-2.281;-9.533;0.291;-0.188;0.114;-0.13;0.024;-0.007;0.0;-1.9;0.4;28.2;48.81;2571;2018-04-16 23:03:39:998
-2.461;-9.41;0.182;-2.281;-9.533;0.291;-0.188;0.114;-0.13;0.006;0.023;0.0;-1.8;0.5;28.5;48.81;2582;2018-04-16 23:03:40:009
-2.434;-9.402;0.214;-2.286;-9.532;0.285;-0.148;0.13;-0.07;-0.013;0.049;-0.004;-1.8;0.5;28.5;48.81;2592;2018-04-16 23:03:40:019
-2.434;-9.402;0.214;-2.286;-9.532;0.285;-0.148;0.13;-0.07;-0.026;0.061;-0.007;-1.8;0.5;28.5;48.81;2602;2018-04-16 23:03:40:029
-2.386;-9.443;0.2;-2.287;-9.532;0.273;-0.088;0.068;-0.078;-0.035;0.059;-0.009;-1.8;0.5;28.5;48.81;2612;2018-04-16 23:03:40:039
-2.382;-9.467;0.215;-2.287;-9.532;0.273;-0.088;0.068;-0.078;-0.046;0.044;-0.013;-1.8;0.5;28.4;48.81;2621;2018-04-16 23:03:40:048
-2.382;-9.467;0.215;-2.287;-9.533;0.261;-0.155;0.043;-0.01;-0.056;0.023;-0.018;-1.8;0.5;28.4;48.81;2632;2018-04-16 23:03:40:059
-2.474;-9.481;0.28;-2.287;-9.533;0.261;-0.155;0.043;-0.01;-0.067;0.005;-0.021;-1.7;0.5;28.4;48.81;2642;2018-04-16 23:03:40:069
-2.543;-9.464;0.315;-2.289;-9.533;0.248;-0.254;0.068;0.067;-0.078;-0.011;-0.018;-1.7;0.5;28.4;48.81;2652;2018-04-16 23:03:40:079
-2.543;-9.464;0.315;-2.289;-9.533;0.248;-0.254;0.068;0.067;-0.082;-0.021;-0.017;-1.7;0.5;28.4;48.81;2662;2018-04-16 23:03:40:089
-2.598;-9.463;0.368;-2.293;-9.532;0.238;-0.307;0.086;0.147;-0.079;-0.034;-0.013;-1.7;0.5;28.4;48.81;2671;2018-04-16 23:03:40:098
-2.561;-9.418;0.387;-2.293;-9.532;0.238;-0.307;0.086;0.147;-0.07;-0.043;-0.01;-1.7;0.5;28.4;48.81;2682;2018-04-16 23:03:40:109
-2.561;-9.418;0.387;-2.297;-9.531;0.232;-0.221;0.136;0.156;-0.057;-0.05;-0.006;-1.7;0.5;28.4;48.81;2692;2018-04-16 23:03:40:119
-2.497;-9.377;0.389;-2.297;-9.531;0.232;-0.221;0.136;0.156;-0.057;-0.05;-0.006;-1.6;0.5;28.5;48.81;2702;2018-04-16 23:03:40:129
-2.444;-9.351;0.39;-2.301;-9.53;0.227;-0.144;0.18;0.163;-0.056;-0.042;-0.001;-1.6;0.5;28.5;48.81;2712;2018-04-16 23:03:40:139
-2.444;-9.351;0.39;-2.301;-9.53;0.227;-0.144;0.18;0.163;-0.054;-0.034;-0.002;-1.5;0.5;28.4;48.81;2722;2018-04-16 23:03:40:149
-2.413;-9.396;0.375;-2.301;-9.53;0.227;-0.144;0.18;0.163;-0.049;-0.039;-0.005;-1.5;0.5;28.4;48.81;2731;2018-04-16 23:03:40:158
-2.427;-9.482;0.427;-2.303;-9.53;0.222;-0.113;0.112;0.159;-0.037;-0.046;-0.009;-1.5;0.5;28.4;48.81;2742;2018-04-16 23:03:40:169
-2.427;-9.482;0.427;-2.303;-9.53;0.222;-0.113;0.112;0.159;-0.021;-0.051;-0.011;-1.5;0.5;28.4;48.81;2752;2018-04-16 23:03:40:179
-2.45;-9.489;0.491;-2.304;-9.53;0.225;-0.16;0.035;0.236;0.0;-0.038;-0.012;-1.5;0.5;28.2;48.81;2762;2018-04-16 23:03:40:189
-2.466;-9.449;0.526;-2.304;-9.529;0.233;-0.162;0.081;0.292;0.009;-0.015;-0.017;-1.5;0.5;28.2;48.81;2771;2018-04-16 23:03:40:198
-2.466;-9.449;0.526;-2.304;-9.529;0.233;-0.162;0.081;0.292;0.009;-0.015;-0.017;-1.5;0.5;28.0;48.81;2782;2018-04-16 23:03:40:209
-2.456;-9.359;0.512;-2.305;-9.529;0.242;-0.173;0.182;0.274;0.013;0.027;-0.016;-1.5;0.5;28.0;48.81;2791;2018-04-16 23:03:40:218
-2.503;-9.355;0.504;-2.305;-9.529;0.242;-0.173;0.182;0.274;0.017;0.046;-0.015;-1.5;0.5;27.8;48.81;2802;2018-04-16 23:03:40:229
-2.503;-9.355;0.504;-2.305;-9.529;0.242;-0.173;0.182;0.274;0.024;0.054;-0.013;-1.5;0.5;27.8;48.81;2812;2018-04-16 23:03:40:239
-2.547;-9.367;0.468;-2.308;-9.528;0.25;-0.239;0.16;0.218;0.035;0.049;-0.015;-1.5;0.5;27.7;48.81;2821;2018-04-16 23:03:40:248
-2.619;-9.398;0.415;-2.313;-9.526;0.263;-0.334;0.11;0.154;0.054;0.027;-0.015;-1.5;0.5;27.7;48.81;2832;2018-04-16 23:03:40:259
-2.659;-9.443;0.373;-2.313;-9.526;0.263;-0.334;0.11;0.154;0.073;-0.004;-0.012;-1.6;0.4;27.5;48.81;2841;2018-04-16 23:03:40:268
-2.659;-9.443;0.373;-2.318;-9.525;0.283;-0.325;0.053;0.067;0.09;-0.035;-0.006;-1.6;0.4;27.5;48.81;2852;2018-04-16 23:03:40:279
-2.632;-9.474;0.321;-2.318;-9.525;0.283;-0.325;0.053;0.067;0.097;-0.059;-0.002;-1.6;0.5;27.4;48.81;2862;2018-04-16 23:03:40:289
-2.632;-9.474;0.321;-2.318;-9.525;0.283;-0.325;0.053;0.067;0.098;-0.079;0.006;-1.6;0.5;27.4;48.81;2871;2018-04-16 23:03:40:298
-2.551;-9.468;0.257;-2.322;-9.523;0.305;-0.229;0.055;-0.048;0.088;-0.092;0.012;-1.6;0.4;27.2;48.81;2882;2018-04-16 23:03:40:309
-2.454;-9.455;0.224;-2.326;-9.521;0.323;-0.096;0.059;-0.106;0.077;-0.1;0.012;-1.6;0.4;27.2;49.88;2892;2018-04-16 23:03:40:319
-2.391;-9.462;0.243;-2.326;-9.521;0.323;-0.096;0.059;-0.106;0.065;-0.092;0.016;-1.6;0.4;27.1;49.88;2902;2018-04-16 23:03:40:329
-2.391;-9.462;0.243;-2.328;-9.52;0.334;-0.042;0.062;-0.061;0.044;-0.081;0.011;-1.6;0.4;27.1;49.88;2912;2018-04-16 23:03:40:339
-2.362;-9.448;0.279;-2.328;-9.52;0.334;-0.042;0.062;-0.061;0.033;-0.054;0.006;-1.7;0.4;27.1;49.88;2922;2018-04-16 23:03:40:349
-2.362;-9.448;0.279;-2.328;-9.52;0.334;-0.042;0.062;-0.061;0.026;-0.024;0.001;-1.7;0.4;27.1;49.88;2932;2018-04-16 23:03:40:359
-2.374;-9.483;0.298;-2.329;-9.52;0.339;-0.044;0.036;-0.041;0.021;0.006;-0.002;-1.7;0.4;27.2;49.88;2941;2018-04-16 23:03:40:368
-2.45;-9.507;0.268;-2.33;-9.52;0.34;-0.135;0.014;-0.075;0.02;0.027;-0.009;-1.7;0.4;27.2;49.88;2952;2018-04-16 23:03:40:379
-2.462;-9.471;0.237;-2.33;-9.52;0.34;-0.135;0.014;-0.075;0.02;0.044;-0.009;-1.7;0.4;27.0;49.88;2962;2018-04-16 23:03:40:389
-2.462;-9.471;0.237;-2.33;-9.52;0.34;-0.135;0.014;-0.075;0.018;0.056;-0.007;-1.7;0.4;27.0;49.88;2971;2018-04-16 23:03:40:398
-2.427;-9.455;0.209;-2.332;-9.519;0.338;-0.108;0.057;-0.106;0.015;0.064;-0.005;-1.7;0.5;26.7;49.88;2982;2018-04-16 23:03:40:409
-2.421;-9.492;0.233;-2.334;-9.519;0.333;-0.087;0.027;-0.1;-0.002;0.077;0.001;-1.7;0.5;26.7;49.88;2992;2018-04-16 23:03:40:419
-2.421;-9.492;0.233;-2.334;-9.519;0.333;-0.087;0.027;-0.1;-0.021;0.087;0.001;-1.8;0.4;26.5;49.88;3002;2018-04-16 23:03:40:429
-2.421;-9.578;0.242;-2.336;-9.519;0.322;-0.094;-0.068;-0.073;-0.037;0.092;0.005;-1.8;0.4;26.5;49.88;3012;2018-04-16 23:03:40:439
-2.418;-9.546;0.251;-2.336;-9.519;0.322;-0.094;-0.068;-0.073;-0.042;0.092;0.007;-1.8;0.5;26.5;49.88;3021;2018-04-16 23:03:40:448
-2.418;-9.546;0.251;-2.336;-9.519;0.322;-0.094;-0.068;-0.073;-0.048;0.081;0.005;-1.8;0.5;26.5;49.88;3032;2018-04-16 23:03:40:459
-2.379;-9.401;0.224;-2.339;-9.519;0.309;-0.063;0.05;-0.061;-0.042;0.049;0.005;-1.8;0.5;26.2;49.88;3041;2018-04-16 23:03:40:468
-2.379;-9.401;0.224;-2.339;-9.519;0.309;-0.063;0.05;-0.061;-0.042;0.049;0.005;-1.8;0.5;26.2;49.88;3052;2018-04-16 23:03:40:479
-2.357;-9.4;0.219;-2.34;-9.519;0.299;-0.017;0.119;-0.08;-0.042;0.021;0.002;-1.8;0.5;26.2;49.88;3061;2018-04-16 23:03:40:488
-2.356;-9.43;0.269;-2.342;-9.519;0.291;-0.015;0.075;0.001;-0.044;-0.015;0.006;-1.8;0.5;26.2;49.88;3072;2018-04-16 23:03:40:499
-2.381;-9.491;0.333;-2.342;-9.519;0.291;-0.015;0.075;0.001;-0.04;-0.032;0.006;-1.8;0.6;26.4;49.88;3082;2018-04-16 23:03:40:509
-2.381;-9.491;0.333;-2.342;-9.519;0.291;-0.064;0.02;0.097;-0.033;-0.031;0.005;-1.8;0.6;26.4;49.88;3091;2018-04-16 23:03:40:518
-2.403;-9.503;0.39;-2.343;-9.518;0.287;-0.064;0.02;0.097;-0.023;-0.027;0.004;-1.8;0.6;26.5;49.88;3102;2018-04-16 23:03:40:529
-2.371;-9.44;0.377;-2.345;-9.518;0.288;-0.027;0.078;0.089;-0.01;-0.015;0.004;-1.8;0.6;26.5;49.88;3111;2018-04-16 23:03:40:538
-2.371;-9.44;0.377;-2.345;-9.518;0.288;-0.027;0.078;0.089;0.009;0.002;0.002;-1.8;0.6;26.6;49.88;3122;2018-04-16 23:03:40:549
-2.354;-9.454;0.314;-2.345;-9.518;0.29;-0.008;0.076;0.005;0.009;0.011;0.0;-1.8;0.6;26.6;49.88;3132;2018-04-16 23:03:40:559
-2.35;-9.418;0.291;-2.345;-9.518;0.29;-0.008;0.076;0.005;0.009;0.011;0.0;-1.7;0.7;26.7;49.88;3142;2018-04-16 23:03:40:569
-2.35;-9.418;0.291;-2.346;-9.518;0.288;-0.022;0.102;-0.014;-0.001;0.028;-0.001;-1.7;0.7;26.7;49.88;3152;2018-04-16 23:03:40:579
-2.364;-9.409;0.291;-2.346;-9.518;0.288;-0.022;0.102;-0.014;-0.009;0.034;-0.001;-1.7;0.7;26.7;49.88;3162;2018-04-16 23:03:40:589
-2.377;-9.415;0.323;-2.348;-9.517;0.284;-0.03;0.102;0.039;-0.011;0.034;0.004;-1.7;0.7;26.7;49.88;3171;2018-04-16 23:03:40:598
-2.377;-9.415;0.323;-2.348;-9.517;0.284;-0.03;0.102;0.039;-0.018;0.028;0.004;-1.8;0.7;26.6;49.88;3182;2018-04-16 23:03:40:609
-2.397;-9.433;0.353;-2.35;-9.517;0.28;-0.048;0.083;0.084;-0.023;0.028;0.005;-1.8;0.7;26.6;49.88;3191;2018-04-16 23:03:40:618
-2.404;-9.432;0.383;-2.35;-9.517;0.28;-0.048;0.083;0.084;-0.026;0.021;0.007;-1.8;0.7;26.6;49.88;3202;2018-04-16 23:03:40:629
-2.404;-9.432;0.383;-2.353;-9.516;0.279;-0.062;0.072;0.109;-0.017;0.01;0.007;-1.8;0.7;26.6;49.57;3211;2018-04-16 23:03:40:638
-2.425;-9.455;0.381;-2.353;-9.516;0.279;-0.062;0.072;0.109;-0.005;-0.01;0.006;-1.8;0.7;26.6;49.57;3222;2018-04-16 23:03:40:649
-2.431;-9.487;0.377;-2.355;-9.515;0.284;-0.077;0.028;0.093;0.011;-0.026;0.006;-1.8;0.7;26.6;49.57;3232;2018-04-16 23:03:40:659
-2.431;-9.487;0.377;-2.355;-9.515;0.284;-0.077;0.028;0.093;0.018;-0.04;0.005;-1.7;0.6;26.5;49.57;3241;2018-04-16 23:03:40:668
-2.438;-9.501;0.359;-2.356;-9.515;0.292;-0.091;-0.006;0.059;0.026;-0.043;0.002;-1.7;0.6;26.5;49.57;3252;2018-04-16 23:03:40:679
-2.436;-9.511;0.311;-2.356;-9.515;0.292;-0.091;-0.006;0.059;0.033;-0.045;-0.002;-1.7;0.6;26.7;49.57;3262;2018-04-16 23:03:40:689
-2.419;-9.48;0.271;-2.357;-9.514;0.302;-0.062;0.034;-0.031;0.043;-0.054;0.004;-1.7;0.6;26.7;49.57;3272;2018-04-16 23:03:40:699
-2.419;-9.48;0.271;-2.357;-9.514;0.302;-0.062;0.034;-0.031;0.048;-0.061;0.0;-1.7;0.6;26.8;49.57;3282;2018-04-16 23:03:40:709
-2.401;-9.45;0.214;-2.358;-9.514;0.313;-0.038;0.078;-0.108;0.051;-0.065;-0.002;-1.7;0.6;26.8;49.57;3292;2018-04-16 23:03:40:719
-2.381;-9.468;0.16;-2.358;-9.514;0.313;-0.038;0.078;-0.108;0.05;-0.066;-0.001;-1.7;0.6;26.9;49.57;3302;2018-04-16 23:03:40:729
-2.381;-9.468;0.16;-2.357;-9.514;0.321;-0.015;0.033;-0.168;0.034;-0.068;-0.002;-1.7;0.6;26.9;49.57;3311;2018-04-16 23:03:40:738
-2.382;-9.482;0.158;-2.357;-9.514;0.321;-0.015;0.033;-0.168;0.017;-0.059;-0.001;-1.7;0.6;26.9;49.57;3322;2018-04-16 23:03:40:749
-2.397;-9.487;0.182;-2.357;-9.514;0.319;-0.039;0.027;-0.137;-0.004;-0.042;-0.004;-1.7;0.6;26.9;49.57;3331;2018-04-16 23:03:40:758
-2.397;-9.487;0.182;-2.357;-9.514;0.319;-0.039;0.027;-0.137;-0.028;-0.022;0.0;-1.6;0.5;27.1;49.57;3342;2018-04-16 23:03:40:769
-2.411;-9.487;0.242;-2.358;-9.514;0.312;-0.086;0.024;-0.051;-0.043;-0.006;-0.002;-1.6;0.5;27.1;49.57;3352;2018-04-16 23:03:40:779
-2.46;-9.474;0.31;-2.358;-9.514;0.312;-0.086;0.024;-0.051;-0.043;-0.006;-0.002;-1.6;0.5;27.3;49.57;3361;2018-04-16 23:03:40:788
-2.46;-9.474;0.31;-2.359;-9.514;0.301;-0.112;0.086;0.055;-0.059;0.013;-0.004;-1.6;0.5;27.3;49.57;3372;2018-04-16 23:03:40:799
-2.488;-9.408;0.357;-2.359;-9.514;0.301;-0.112;0.086;0.055;-0.056;0.028;-0.001;-1.5;0.6;27.5;49.57;3382;2018-04-16 23:03:40:809
-2.483;-9.376;0.376;-2.361;-9.514;0.291;-0.122;0.138;0.085;-0.048;0.033;-0.001;-1.5;0.6;27.5;49.57;3391;2018-04-16 23:03:40:818
-2.483;-9.376;0.376;-2.361;-9.514;0.291;-0.122;0.138;0.085;-0.048;0.033;-0.001;-1.5;0.5;27.6;49.57;3401;2018-04-16 23:03:40:828
-2.479;-9.379;0.373;-2.364;-9.513;0.284;-0.113;0.126;0.085;-0.038;0.029;0.002;-1.5;0.5;27.6;49.57;3412;2018-04-16 23:03:40:839
-2.473;-9.402;0.383;-2.364;-9.513;0.284;-0.113;0.126;0.085;-0.028;0.02;0.004;-1.5;0.5;27.7;49.57;3422;2018-04-16 23:03:40:849
-2.473;-9.402;0.383;-2.367;-9.513;0.28;-0.1;0.109;0.096;-0.02;0.012;0.007;-1.5;0.5;27.7;49.57;3431;2018-04-16 23:03:40:858
-2.447;-9.404;0.376;-2.367;-9.513;0.28;-0.1;0.109;0.096;-0.02;0.012;0.007;-1.5;0.5;27.9;49.57;3442;2018-04-16 23:03:40:869
-2.434;-9.414;0.37;-2.37;-9.512;0.28;-0.064;0.098;0.09;-0.011;0.001;0.009;-1.5;0.5;27.9;49.57;3452;2018-04-16 23:03:40:879
-2.434;-9.414;0.37;-2.37;-9.512;0.28;-0.064;0.098;0.09;-0.005;-0.006;0.006;-1.5;0.5;28.1;49.57;3461;2018-04-16 23:03:40:888
-2.406;-9.448;0.388;-2.372;-9.511;0.282;-0.044;0.054;0.101;0.002;-0.018;0.007;-1.5;0.5;28.1;49.57;3472;2018-04-16 23:03:40:899
-2.412;-9.493;0.39;-2.372;-9.511;0.282;-0.044;0.054;0.101;0.002;-0.018;0.007;-1.4;0.5;28.2;49.57;3482;2018-04-16 23:03:40:909
-2.412;-9.493;0.39;-2.373;-9.511;0.287;-0.018;-0.006;0.123;0.011;-0.027;0.007;-1.4;0.5;28.2;49.57;3491;2018-04-16 23:03:40:918
-2.399;-9.527;0.406;-2.373;-9.511;0.287;-0.018;-0.006;0.123;0.016;-0.031;0.007;-1.4;0.5;28.5;49.57;3502;2018-04-16 23:03:40:929
-2.422;-9.529;0.393;-2.374;-9.51;0.295;-0.047;-0.019;0.097;0.031;-0.026;0.005;-1.4;0.5;28.5;49.57;3512;2018-04-16 23:03:40:939
-2.422;-9.529;0.393;-2.374;-9.51;0.295;-0.047;-0.019;0.097;0.04;-0.02;0.004;-1.4;0.4;28.6;49.57;3521;2018-04-16 23:03:40:948
-2.434;-9.491;0.364;-2.375;-9.51;0.306;-0.07;0.025;0.041;0.05;-0.016;0.001;-1.4;0.4;28.6;49.57;3532;2018-04-16 23:03:40:959
-2.448;-9.45;0.293;-2.375;-9.51;0.306;-0.07;0.025;0.041;0.062;-0.013;-0.001;-1.3;0.4;28.9;49.57;3542;2018-04-16 23:03:40:969
-2.448;-9.45;0.293;-2.376;-9.509;0.318;-0.112;0.064;-0.072;0.061;-0.016;-0.001;-1.3;0.4;28.9;50.13;3551;2018-04-16 23:03:40:978
-2.508;-9.469;0.238;-2.376;-9.509;0.318;-0.112;0.064;-0.072;0.061;-0.016;-0.001;-1.3;0.5;29.0;50.13;3562;2018-04-16 23:03:40:989
-2.508;-9.469;0.238;-2.376;-9.509;0.318;-0.112;0.064;-0.072;0.048;-0.013;0.004;-1.3;0.5;29.0;50.13;3571;2018-04-16 23:03:40:998
-2.525;-9.485;0.22;-2.378;-9.508;0.328;-0.147;0.024;-0.107;0.037;-0.007;0.007;-1.3;0.5;29.0;50.13;3582;2018-04-16 23:03:41:009
-2.495;-9.499;0.219;-2.381;-9.507;0.333;-0.112;0.01;-0.126;0.034;0.0;0.011;-1.3;0.5;29.0;50.13;3591;2018-04-16 23:03:41:018
-2.461;-9.454;0.205;-2.381;-9.507;0.333;-0.112;0.01;-0.126;0.029;0.006;0.01;-1.2;0.5;29.1;50.13;3602;2018-04-16 23:03:41:029
-2.41;-9.407;0.206;-2.384;-9.507;0.336;-0.026;0.1;-0.13;0.026;0.013;0.012;-1.2;0.5;29.1;50.13;3612;2018-04-16 23:03:41:039
-2.41;-9.407;0.206;-2.384;-9.507;0.336;-0.026;0.1;-0.13;0.015;0.02;0.011;-1.2;0.5;29.2;50.13;3622;2018-04-16 23:03:41:049
-2.327;-9.377;0.214;-2.386;-9.506;0.334;0.083;0.134;-0.114;0.005;0.034;0.009;-1.2;0.5;29.2;50.13;3632;2018-04-16 23:03:41:059
-2.276;-9.38;0.277;-2.386;-9.506;0.334;0.083;0.134;-0.114;0.005;0.034;0.009;-1.2;0.5;29.2;50.13;3642;2018-04-16 23:03:41:069
-2.276;-9.38;0.277;-2.386;-9.506;0.325;0.113;0.089;-0.009;-0.029;0.076;0.007;-1.2;0.5;29.2;50.13;3651;2018-04-16 23:03:41:078
-2.261;-9.433;0.334;-2.386;-9.506;0.325;0.113;0.089;-0.009;-0.043;0.093;0.004;-1.2;0.5;29.1;50.13;3662;2018-04-16 23:03:41:089
-2.292;-9.457;0.387;-2.386;-9.507;0.312;0.094;0.05;0.075;-0.045;0.099;0.0;-1.2;0.5;29.1;50.13;3671;2018-04-16 23:03:41:098
-2.292;-9.457;0.387;-2.386;-9.507;0.312;0.094;0.05;0.075;-0.04;0.092;-0.004;-1.3;0.5;28.9;50.13;3682;2018-04-16 23:03:41:109
-2.32;-9.467;0.381;-2.386;-9.507;0.312;0.094;0.05;0.075;-0.028;0.078;-0.006;-1.3;0.5;28.9;50.13;3691;2018-04-16 23:03:41:118
-2.367;-9.451;0.359;-2.384;-9.508;0.304;0.044;0.05;0.07;-0.02;0.054;-0.011;-1.3;0.5;28.9;50.13;3702;2018-04-16 23:03:41:129
-2.367;-9.451;0.359;-2.382;-9.508;0.3;0.006;0.041;0.025;-0.015;0.023;-0.011;-1.3;0.5;28.9;50.13;3711;2018-04-16 23:03:41:138
-2.391;-9.476;0.32;-2.382;-9.508;0.3;0.006;0.041;0.025;-0.011;-0.011;-0.007;-1.3;0.5;28.7;50.13;3722;2018-04-16 23:03:41:149
-2.391;-9.476;0.32;-2.382;-9.508;0.3;0.006;0.041;0.025;-0.006;-0.044;-0.009;-1.3;0.5;28.7;50.13;3732;2018-04-16 23:03:41:159
-2.46;-9.48;0.338;-2.381;-9.508;0.301;-0.079;0.029;0.036;-0.005;-0.072;-0.007;-1.3;0.5;28.7;50.13;3742;2018-04-16 23:03:41:169
-2.533;-9.424;0.39;-2.381;-9.508;0.305;-0.154;0.083;0.09;-0.001;-0.088;-0.001;-1.3;0.5;28.7;50.13;3752;2018-04-16 23:03:41:179
-2.568;-9.428;0.427;-2.381;-9.508;0.305;-0.154;0.083;0.09;-0.001;-0.088;-0.001;-1.3;0.6;28.6;50.13;3761;2018-04-16 23:03:41:188
-2.568;-9.428;0.427;-2.384;-9.507;0.312;-0.182;0.081;0.137;0.004;-0.082;0.007;-1.3;0.6;28.6;50.13;3772;2018-04-16 23:03:41:199
-2.553;-9.416;0.461;-2.384;-9.507;0.312;-0.182;0.081;0.137;0.011;-0.062;0.009;-1.3;0.6;28.6;50.13;3781;2018-04-16 23:03:41:208
-2.522;-9.379;0.423;-2.387;-9.506;0.318;-0.135;0.127;0.105;0.015;-0.039;0.011;-1.3;0.6;28.6;50.13;3792;2018-04-16 23:03:41:219
-2.522;-9.379;0.423;-2.387;-9.506;0.318;-0.135;0.127;0.105;0.023;-0.018;0.015;-1.3;0.5;28.5;50.13;3802;2018-04-16 23:03:41:229
-2.433;-9.414;0.363;-2.39;-9.505;0.324;-0.016;0.066;0.04;0.029;-0.006;0.012;-1.3;0.5;28.5;50.13;3812;2018-04-16 23:03:41:239
-2.38;-9.474;0.338;-2.39;-9.505;0.324;-0.016;0.066;0.04;0.035;0.005;0.011;-1.3;0.6;28.5;50.13;3821;2018-04-16 23:03:41:248
-2.38;-9.474;0.338;-2.391;-9.505;0.33;0.018;0.0;0.022;0.028;0.011;0.006;-1.3;0.6;28.5;50.13;3832;2018-04-16 23:03:41:259
-2.373;-9.493;0.345;-2.391;-9.505;0.33;0.018;0.0;0.022;0.027;0.013;0.005;-1.3;0.7;28.4;50.13;3841;2018-04-16 23:03:41:268
-2.374;-9.473;0.345;-2.392;-9.504;0.334;0.018;0.032;0.011;0.026;0.007;0.005;-1.3;0.7;28.4;50.13;3852;2018-04-16 23:03:41:279
-2.374;-9.473;0.345;-2.392;-9.504;0.334;0.018;0.032;0.011;0.028;0.002;0.005;-1.4;0.6;28.4;50.13;3862;2018-04-16 23:03:41:289
-2.394;-9.433;0.354;-2.393;-9.504;0.34;0.005;0.063;0.009;0.032;-0.006;0.004;-1.4;0.6;28.4;49.97;3872;2018-04-16 23:03:41:299
-2.388;-9.421;0.351;-2.393;-9.504;0.34;0.005;0.063;0.009;0.027;-0.005;0.005;-1.3;0.6;28.5;49.97;3882;2018-04-16 23:03:41:309
-2.388;-9.421;0.351;-2.394;-9.504;0.344;-0.009;0.081;0.028;0.02;-0.007;0.001;-1.3;0.6;28.5;49.97;3891;2018-04-16 23:03:41:318
-2.417;-9.433;0.382;-2.394;-9.504;0.344;-0.009;0.081;0.028;0.013;-0.006;0.001;-1.3;0.6;28.4;49.97;3901;2018-04-16 23:03:41:328
-2.453;-9.45;0.4;-2.394;-9.504;0.347;-0.059;0.054;0.053;0.009;-0.007;0.001;-1.3;0.6;28.4;49.97;3911;2018-04-16 23:03:41:338
-2.453;-9.45;0.4;-2.394;-9.504;0.347;-0.059;0.054;0.053;0.012;-0.007;-0.001;-1.3;0.6;28.2;49.97;3922;2018-04-16 23:03:41:349
-2.468;-9.415;0.411;-2.395;-9.503;0.352;-0.084;0.092;0.058;0.023;-0.006;0.001;-1.3;0.6;28.2;49.97;3931;2018-04-16 23:03:41:358
-2.459;-9.406;0.381;-2.395;-9.503;0.352;-0.084;0.092;0.058;0.031;-0.006;0.004;-1.3;0.6;28.4;49.97;3942;2018-04-16 23:03:41:369
-2.459;-9.406;0.381;-2.395;-9.503;0.352;-0.084;0.092;0.058;0.035;-0.004;0.004;-1.3;0.6;28.4;49.97;3951;2018-04-16 23:03:41:378
-2.385;-9.4;0.33;-2.397;-9.502;0.359;-0.013;0.104;-0.006;0.037;-0.004;0.009;-1.3;0.6;28.4;49.97;3962;2018-04-16 23:03:41:389
-2.308;-9.431;0.302;-2.398;-9.502;0.364;0.09;0.071;-0.062;0.029;-0.009;0.007;-1.3;0.6;28.4;49.97;3972;2018-04-16 23:03:41:399
-2.308;-9.431;0.302;-2.398;-9.502;0.364;0.09;0.071;-0.062;0.017;-0.015;0.009;-1.3;0.7;28.4;49.97;3982;2018-04-16 23:03:41:409
-2.297;-9.475;0.322;-2.397;-9.502;0.365;0.087;0.041;-0.038;0.004;-0.02;0.005;-1.3;0.7;28.4;49.97;3992;2018-04-16 23:03:41:419
-2.354;-9.467;0.354;-2.397;-9.502;0.365;0.087;0.041;-0.038;-0.006;-0.029;0.001;-1.3;0.7;28.2;49.97;4002;2018-04-16 23:03:41:429
-2.354;-9.467;0.354;-2.397;-9.502;0.365;-0.006;0.045;0.011;-0.011;-0.04;0.0;-1.3;0.7;28.2;49.97;4011;2018-04-16 23:03:41:438
-2.415;-9.439;0.385;-2.397;-9.502;0.365;-0.006;0.045;0.011;-0.009;-0.059;-0.001;-1.3;0.6;28.2;49.97;4022;2018-04-16 23:03:41:449
-2.491;-9.424;0.423;-2.397;-9.502;0.367;-0.094;0.078;0.056;-0.007;-0.065;0.0;-1.3;0.6;28.2;49.97;4032;2018-04-16 23:03:41:459
-2.491;-9.424;0.423;-2.397;-9.502;0.367;-0.094;0.078;0.056;-0.007;-0.065;0.0;-1.3;0.7;28.1;49.97;4042;2018-04-16 23:03:41:469
-2.528;-9.432;0.439;-2.397;-9.502;0.367;-0.094;0.078;0.056;-0.005;-0.065;0.0;-1.3;0.7;28.1;49.97;4051;2018-04-16 23:03:41:478
-2.529;-9.439;0.426;-2.398;-9.502;0.369;-0.148;0.069;0.066;-0.001;-0.064;0.006;-1.3;0.6;28.2;49.97;4062;2018-04-16 23:03:41:489
-2.529;-9.439;0.426;-2.4;-9.501;0.374;-0.093;0.041;0.028;0.007;-0.066;0.006;-1.3;0.6;28.2;49.97;4072;2018-04-16 23:03:41:499
-2.461;-9.471;0.405;-2.4;-9.501;0.374;-0.093;0.041;0.028;0.022;-0.071;0.012;-1.3;0.7;28.1;49.97;4081;2018-04-16 23:03:41:508
-2.409;-9.517;0.443;-2.402;-9.5;0.383;-0.007;-0.017;0.06;0.027;-0.075;0.011;-1.3;0.7;28.1;49.97;4092;2018-04-16 23:03:41:519
-2.409;-9.517;0.443;-2.402;-9.5;0.383;-0.007;-0.017;0.06;0.023;-0.066;0.001;-1.3;0.7;28.1;49.97;4101;2018-04-16 23:03:41:528
-2.491;-9.489;0.478;-2.402;-9.5;0.391;-0.108;0.011;0.076;0.022;-0.048;-0.005;-1.3;0.7;28.1;49.97;4112;2018-04-16 23:03:41:539
-2.563;-9.487;0.467;-2.402;-9.5;0.391;-0.108;0.011;0.076;0.022;-0.048;-0.005;-1.3;0.7;28.1;49.97;4122;2018-04-16 23:03:41:549
-2.563;-9.487;0.467;-2.402;-9.5;0.4;-0.2;0.032;0.048;0.04;-0.031;-0.006;-1.3;0.7;28.1;49.97;4131;2018-04-16 23:03:41:558
-2.634;-9.475;0.433;-2.402;-9.5;0.4;-0.2;0.032;0.048;0.051;-0.033;-0.005;-1.2;0.7;28.1;49.97;4142;2018-04-16 23:03:41:569
-2.703;-9.428;0.39;-2.404;-9.499;0.413;-0.299;0.07;-0.022;0.06;-0.043;-0.001;-1.2;0.7;28.1;49.97;4152;2018-04-16 23:03:41:579
-2.703;-9.428;0.39;-2.404;-9.499;0.413;-0.299;0.07;-0.022;0.064;-0.066;0.011;-1.2;0.7;28.1;49.97;4161;2018-04-16 23:03:41:588
-2.765;-9.407;0.243;-2.409;-9.496;0.434;-0.374;0.086;-0.216;0.087;-0.115;0.016;-1.2;0.7;28.1;49.97;4172;2018-04-16 23:03:41:599
-2.851;-9.459;0.182;-2.409;-9.496;0.434;-0.374;0.086;-0.216;0.123;-0.204;0.021;-1.2;0.7;28.1;49.97;4181;2018-04-16 23:03:41:608
-2.851;-9.459;0.182;-2.417;-9.492;0.474;-0.464;0.0;-0.32;0.156;-0.288;0.033;-1.2;0.7;28.1;49.34;4192;2018-04-16 23:03:41:619
-2.851;-9.461;0.14;-2.417;-9.492;0.474;-0.464;0.0;-0.32;0.166;-0.357;0.044;-1.1;0.6;28.2;49.34;4202;2018-04-16 23:03:41:629
-2.808;-9.374;0.165;-2.427;-9.487;0.517;-0.381;0.113;-0.352;0.155;-0.389;0.051;-1.1;0.6;28.2;49.34;4211;2018-04-16 23:03:41:638
-2.808;-9.374;0.165;-2.427;-9.487;0.517;-0.381;0.113;-0.352;0.115;-0.384;0.055;-1.1;0.7;28.4;49.34;4222;2018-04-16 23:03:41:649
-2.761;-9.336;0.227;-2.438;-9.483;0.544;-0.284;0.166;-0.296;0.071;-0.353;0.059;-1.1;0.7;28.4;49.34;4231;2018-04-16 23:03:41:658
-2.662;-9.31;0.291;-2.438;-9.483;0.544;-0.284;0.166;-0.296;0.024;-0.302;0.07;-1.1;0.7;28.4;49.34;4242;2018-04-16 23:03:41:669
-2.662;-9.31;0.291;-2.451;-9.479;0.551;-0.159;0.125;-0.241;-0.015;-0.241;0.07;-1.1;0.7;28.4;49.34;4252;2018-04-16 23:03:41:679
-2.561;-9.383;0.338;-2.451;-9.479;0.551;-0.159;0.125;-0.241;-0.028;-0.204;0.068;-1.0;0.6;28.6;49.34;4262;2018-04-16 23:03:41:689
-2.354;-9.512;0.324;-2.462;-9.476;0.554;0.108;-0.036;-0.229;-0.023;-0.183;0.07;-1.0;0.6;28.6;49.34;4272;2018-04-16 23:03:41:699
-2.354;-9.512;0.324;-2.462;-9.476;0.554;0.108;-0.036;-0.229;-0.004;-0.145;0.056;-0.9;0.6;28.6;49.34;4281;2018-04-16 23:03:41:708
-2.035;-9.556;0.351;-2.465;-9.475;0.558;0.52;-0.048;-0.222;0.005;-0.1;0.038;-0.9;0.6;28.6;49.34;4292;2018-04-16 23:03:41:719
-1.815;-9.42;0.327;-2.465;-9.475;0.558;0.52;-0.048;-0.222;0.005;-0.1;0.038;-0.8;0.7;28.9;49.34;4302;2018-04-16 23:03:41:729
-1.815;-9.42;0.327;-2.457;-9.478;0.555;0.658;0.176;-0.2;0.0;-0.005;-0.01;-0.8;0.7;28.9;49.34;4311;2018-04-16 23:03:41:738
-1.857;-9.274;0.365;-2.457;-9.478;0.555;0.658;0.176;-0.2;-0.009;0.073;-0.053;-0.6;0.8;29.0;49.34;4322;2018-04-16 23:03:41:749
-1.964;-9.266;0.323;-2.441;-9.482;0.543;0.476;0.217;-0.22;-0.021;0.149;-0.076;-0.6;0.8;29.0;49.34;4332;2018-04-16 23:03:41:759
-1.964;-9.266;0.323;-2.441;-9.482;0.543;0.476;0.217;-0.22;-0.007;0.189;-0.088;-0.5;0.7;29.1;49.34;4341;2018-04-16 23:03:41:768
-2.216;-9.313;0.225;-2.42;-9.488;0.544;0.119;0.18;-0.31;0.05;0.165;-0.11;-0.5;0.7;29.1;49.34;4352;2018-04-16 23:03:41:779
-2.458;-9.291;0.261;-2.42;-9.488;0.544;0.119;0.18;-0.31;0.125;0.105;-0.127;-0.4;0.7;29.3;49.34;4362;2018-04-16 23:03:41:789
-2.458;-9.291;0.261;-2.396;-9.492;0.569;-0.179;0.192;-0.349;0.177;0.071;-0.14;-0.4;0.7;29.3;49.34;4372;2018-04-16 23:03:41:799
-2.555;-9.309;0.129;-2.396;-9.492;0.569;-0.179;0.192;-0.349;0.187;0.087;-0.136;-0.4;0.7;29.6;49.34;4381;2018-04-16 23:03:41:808
-2.423;-9.26;-0.085;-2.378;-9.496;0.589;-0.045;0.236;-0.674;0.151;0.117;-0.098;-0.4;0.7;29.6;49.34;4392;2018-04-16 23:03:41:819
-2.423;-9.26;-0.085;-2.378;-9.496;0.589;-0.045;0.236;-0.674;0.081;0.123;-0.089;-0.3;0.8;29.8;49.34;4402;2018-04-16 23:03:41:829
-2.383;-9.328;-0.227;-2.363;-9.5;0.584;-0.015;0.171;-0.82;0.01;0.092;-0.089;-0.3;0.8;29.8;49.34;4412;2018-04-16 23:03:41:839
-2.346;-9.39;-0.152;-2.363;-9.5;0.584;-0.015;0.171;-0.82;-0.027;0.011;-0.088;-0.2;0.9;30.0;49.34;4422;2018-04-16 23:03:41:849
-2.346;-9.39;-0.152;-2.344;-9.505;0.571;-0.056;0.082;-0.549;-0.054;-0.078;-0.094;-0.2;0.9;30.0;49.34;4431;2018-04-16 23:03:41:858
-2.443;-9.43;0.093;-2.344;-9.505;0.571;-0.056;0.082;-0.549;-0.083;-0.123;-0.1;-0.1;0.9;30.1;49.34;4442;2018-04-16 23:03:41:869
-2.623;-9.357;0.413;-2.326;-9.511;0.553;-0.297;0.154;-0.14;-0.106;-0.121;-0.101;-0.1;0.9;30.1;49.34;4451;2018-04-16 23:03:41:878
-2.623;-9.357;0.413;-2.326;-9.511;0.553;-0.297;0.154;-0.14;-0.116;-0.073;-0.099;-0.1;1.0;30.1;49.34;4462;2018-04-16 23:03:41:889
-2.635;-9.305;0.541;-2.312;-9.515;0.535;-0.303;0.222;0.006;-0.1;-0.015;-0.092;-0.1;1.0;30.1;49.34;4472;2018-04-16 23:03:41:899
-2.559;-9.303;0.563;-2.312;-9.515;0.535;-0.303;0.222;0.006;-0.07;0.048;-0.086;0.0;1.0;30.2;49.34;4481;2018-04-16 23:03:41:908
-2.5;-9.313;0.506;-2.299;-9.519;0.521;-0.2;0.206;-0.014;-0.05;0.117;-0.084;0.0;1.0;30.2;49.34;4492;2018-04-16 23:03:41:919
-2.5;-9.313;0.506;-2.299;-9.519;0.521;-0.2;0.206;-0.014;-0.035;0.184;-0.088;0.0;1.0;30.3;49.34;4502;2018-04-16 23:03:41:929
-2.51;-9.258;0.409;-2.299;-9.519;0.521;-0.2;0.206;-0.014;-0.033;0.247;-0.098;0.0;1.0;30.3;48.98;4511;2018-04-16 23:03:41:938
-2.655;-9.237;0.309;-2.286;-9.523;0.502;-0.285;0.264;-0.123;-0.039;0.292;-0.101;0.0;1.0;30.4;48.98;4522;2018-04-16 23:03:41:949
-2.655;-9.237;0.309;-2.277;-9.527;0.478;-0.425;0.345;-0.269;-0.038;0.316;-0.092;0.0;1.0;30.4;48.98;4532;2018-04-16 23:03:41:959
-2.713;-9.135;0.174;-2.277;-9.527;0.478;-0.425;0.345;-0.269;-0.038;0.309;-0.076;0.1;1.0;30.5;48.98;4541;2018-04-16 23:03:41:968
-2.726;-9.072;0.102;-2.272;-9.529;0.456;-0.454;0.457;-0.354;-0.035;0.272;-0.061;0.1;1.0;30.5;48.98;4552;2018-04-16 23:03:41:979
-2.726;-9.072;0.102;-2.272;-9.529;0.456;-0.454;0.457;-0.354;-0.038;0.22;-0.044;0.1;1.0;30.6;48.98;4561;2018-04-16 23:03:41:988
-2.692;-8.988;0.128;-2.272;-9.529;0.456;-0.454;0.457;-0.354;-0.038;0.22;-0.044;0.1;1.0;30.6;48.98;4571;2018-04-16 23:03:41:998
-2.618;-8.935;0.163;-2.274;-9.529;0.437;-0.399;0.571;-0.299;-0.053;0.145;-0.009;0.1;1.0;30.8;48.98;4581;2018-04-16 23:03:42:008
-2.618;-8.935;0.163;-2.286;-9.528;0.409;-0.204;0.633;-0.263;-0.104;0.116;0.039;0.1;1.0;30.8;48.98;4592;2018-04-16 23:03:42:019
-2.459;-8.939;0.154;-2.286;-9.528;0.409;-0.204;0.633;-0.263;-0.16;0.098;0.075;0.0;1.0;30.8;48.98;4602;2018-04-16 23:03:42:029
-2.295;-9.087;0.105;-2.309;-9.524;0.364;0.014;0.437;-0.259;-0.21;0.073;0.114;0.0;1.0;30.8;48.98;4612;2018-04-16 23:03:42:039
-2.295;-9.087;0.105;-2.309;-9.524;0.364;0.014;0.437;-0.259;-0.255;0.021;0.159;0.0;0.9;30.9;48.98;4622;2018-04-16 23:03:42:049
-2.112;-9.307;0.119;-2.309;-9.524;0.364;0.014;0.437;-0.165;-0.313;-0.099;0.206;0.0;0.9;30.9;48.98;4632;2018-04-16 23:03:42:059
-2.107;-9.801;0.274;-2.345;-9.517;0.309;0.222;0.071;-0.165;-0.313;-0.099;0.206;0.0;1.0;31.1;48.98;4642;2018-04-16 23:03:42:069
-2.107;-9.801;0.274;-2.388;-9.508;0.258;0.427;-0.779;0.128;-0.336;-0.258;0.248;0.0;1.0;31.1;48.98;4652;2018-04-16 23:03:42:079
-1.791;-10.536;0.455;-2.388;-9.508;0.258;0.427;-0.779;0.128;-0.308;-0.375;0.28;0.0;1.0;31.1;48.98;4662;2018-04-16 23:03:42:089
-1.342;-10.728;0.467;-2.44;-9.495;0.241;1.098;-1.233;0.226;-0.18;-0.606;0.287;0.0;1.0;31.1;48.98;4671;2018-04-16 23:03:42:098
-1.342;-10.728;0.467;-2.44;-9.495;0.241;1.098;-1.233;0.226;-0.039;-0.793;0.246;0.0;0.9;31.1;48.98;4681;2018-04-16 23:03:42:108
-1.043;-10.217;0.437;-2.44;-9.495;0.241;1.098;-1.233;0.226;0.121;-0.986;0.183;0.0;0.9;31.1;48.98;4691;2018-04-16 23:03:42:118
-1.053;-9.796;0.376;-2.469;-9.486;0.295;1.454;-0.593;0.136;0.254;-1.126;0.119;0.0;0.8;31.1;48.98;4701;2018-04-16 23:03:42:128
-1.053;-9.796;0.376;-2.46;-9.484;0.414;1.279;-0.308;-0.033;0.327;-1.179;0.073;0.0;0.8;31.1;48.98;4712;2018-04-16 23:03:42:139
-1.209;-9.819;0.399;-2.46;-9.484;0.414;1.279;-0.308;-0.033;0.343;-1.155;0.021;0.0;0.7;31.0;48.98;4722;2018-04-16 23:03:42:149
-1.155;-9.703;0.454;-2.43;-9.486;0.534;1.274;-0.217;-0.08;0.354;-1.086;-0.038;0.0;0.7;31.0;48.98;4732;2018-04-16 23:03:42:159
-1.155;-9.703;0.454;-2.43;-9.486;0.534;1.274;-0.217;-0.08;0.402;-1.002;-0.11;0.1;0.6;31.1;48.98;4742;2018-04-16 23:03:42:169
-1.147;-9.339;0.494;-2.43;-9.486;0.534;1.274;-0.217;-0.08;0.483;-0.904;-0.178;0.1;0.6;31.1;48.98;4752;2018-04-16 23:03:42:179
-1.255;-9.164;0.431;-2.375;-9.491;0.67;1.213;0.253;-0.201;0.596;-0.688;-0.275;0.3;0.6;31.1;48.98;4762;2018-04-16 23:03:42:189
-1.255;-9.164;0.431;-2.304;-9.498;0.805;0.921;0.215;-0.432;0.595;-0.457;-0.32;0.3;0.6;31.1;48.98;4772;2018-04-16 23:03:42:199
-1.415;-9.351;0.357;-2.304;-9.498;0.805;0.921;0.215;-0.432;0.595;-0.457;-0.32;0.5;0.6;31.2;48.98;4782;2018-04-16 23:03:42:209
-1.445;-9.638;0.227;-2.234;-9.508;0.886;0.789;-0.13;-0.659;0.458;-0.005;-0.332;0.5;0.6;31.2;48.98;4792;2018-04-16 23:03:42:219
-1.445;-9.638;0.227;-2.234;-9.508;0.886;0.789;-0.13;-0.659;0.37;0.282;-0.341;0.7;0.6;31.1;48.98;4802;2018-04-16 23:03:42:229
-1.506;-9.905;0.147;-2.168;-9.519;0.93;0.642;-0.367;-0.806;0.365;0.475;-0.359;0.7;0.6;31.1;48.98;4811;2018-04-16 23:03:42:238
-1.617;-9.787;0.104;-2.168;-9.519;0.93;0.642;-0.367;-0.806;0.424;0.599;-0.373;0.9;0.7;31.1;48.98;4821;2018-04-16 23:03:42:248
-1.617;-9.787;0.104;-2.168;-9.519;0.93;0.642;-0.367;-0.806;0.424;0.599;-0.373;0.9;0.7;31.1;48.98;4831;2018-04-16 23:03:42:258
-1.731;-9.689;0.108;-2.106;-9.527;0.987;0.378;-0.233;-0.865;0.528;0.745;-0.37;1.0;0.8;31.2;48.98;4841;2018-04-16 23:03:42:268
-1.715;-9.631;-0.113;-2.058;-9.531;1.041;0.343;-0.099;-1.154;0.552;0.931;-0.336;1.0;0.8;31.2;50.47;4852;2018-04-16 23:03:42:279
-1.715;-9.631;-0.113;-2.058;-9.531;1.041;0.343;-0.099;-1.154;0.498;1.031;-0.305;1.2;0.9;31.1;50.47;4862;2018-04-16 23:03:42:289
-1.719;-9.786;-0.415;-2.03;-9.536;1.057;0.357;-0.25;-1.494;0.387;1.067;-0.254;1.2;0.9;31.1;50.47;4872;2018-04-16 23:03:42:299
-1.647;-9.785;-0.351;-2.03;-9.536;1.057;0.357;-0.25;-1.494;0.243;1.018;-0.197;1.3;1.0;31.1;50.47;4882;2018-04-16 23:03:42:309
-1.647;-9.785;-0.351;-2.017;-9.541;1.032;0.208;-0.242;-1.064;0.06;0.819;-0.13;1.3;1.0;31.1;50.47;4892;2018-04-16 23:03:42:319
-1.895;-9.726;0.23;-2.017;-9.541;1.032;0.208;-0.242;-1.064;0.06;0.819;-0.13;1.4;1.2;31.0;50.47;4902;2018-04-16 23:03:42:329
-2.176;-9.657;1.002;-2.015;-9.545;1.004;-0.162;-0.112;-0.002;-0.004;0.618;-0.076;1.4;1.2;31.0;50.47;4912;2018-04-16 23:03:42:339
-2.176;-9.657;1.002;-2.015;-9.545;1.004;-0.162;-0.112;-0.002;0.028;0.542;-0.056;1.5;1.3;30.9;50.47;4922;2018-04-16 23:03:42:349
-2.297;-9.306;1.551;-2.02;-9.543;1.012;-0.301;0.358;0.598;0.112;0.53;-0.044;1.5;1.3;30.9;50.47;4931;2018-04-16 23:03:42:358
-2.407;-9.058;1.56;-2.02;-9.543;1.012;-0.301;0.358;0.598;0.264;0.536;-0.049;1.5;1.5;30.7;50.47;4941;2018-04-16 23:03:42:368
-2.407;-9.058;1.56;-2.02;-9.543;1.012;-0.301;0.358;0.598;0.557;0.502;-0.059;1.5;1.5;30.7;50.47;4951;2018-04-16 23:03:42:378
-2.558;-9.086;1.313;-2.025;-9.534;1.084;-0.534;0.448;0.229;0.728;0.454;-0.035;1.5;1.8;30.7;50.47;4961;2018-04-16 23:03:42:388
-2.307;-8.967;0.93;-2.025;-9.534;1.084;-0.534;0.448;0.229;0.812;0.44;0.006;1.5;1.8;30.7;50.47;4971;2018-04-16 23:03:42:398
-1.834;-8.717;0.536;-2.035;-9.516;1.211;-0.156;0.59;-0.36;0.797;0.475;0.046;1.4;2.0;30.6;50.47;4982;2018-04-16 23:03:42:409
-1.834;-8.717;0.536;-2.061;-9.495;1.327;0.476;0.834;-1.071;0.723;0.501;0.07;1.4;2.0;30.6;50.47;4992;2018-04-16 23:03:42:419
-1.501;-8.699;0.136;-2.061;-9.495;1.327;0.476;0.834;-1.071;0.666;0.446;0.087;1.4;2.2;30.5;50.47;5002;2018-04-16 23:03:42:429
-1.398;-9.185;0.026;-2.086;-9.474;1.436;0.688;0.289;-1.41;0.661;0.275;0.112;1.4;2.2;30.5;50.47;5012;2018-04-16 23:03:42:439
-1.398;-9.185;0.026;-2.086;-9.474;1.436;0.688;0.289;-1.41;0.69;0.042;0.136;1.3;2.6;30.5;50.47;5021;2018-04-16 23:03:42:448
-1.275;-9.734;0.043;-2.086;-9.474;1.436;0.688;0.289;-1.41;0.717;-0.191;0.144;1.3;2.6;30.5;50.47;5031;2018-04-16 23:03:42:458
-1.183;-9.893;0.146;-2.1;-9.45;1.566;0.855;-0.337;-1.513;0.732;-0.365;0.153;1.1;2.9;30.4;50.47;5041;2018-04-16 23:03:42:468
-1.183;-9.893;0.146;-2.1;-9.45;1.566;0.855;-0.337;-1.513;0.74;-0.469;0.16;1.1;2.9;30.4;50.47;5051;2018-04-16 23:03:42:478
-0.953;-9.754;0.12;-2.105;-9.424;1.711;1.066;-0.365;-1.562;0.754;-0.505;0.166;0.9;3.3;30.4;50.47;5061;2018-04-16 23:03:42:488
-0.81;-9.877;-0.092;-2.105;-9.396;1.857;1.295;-0.481;-1.949;0.757;-0.454;0.149;0.9;3.3;30.4;50.47;5072;2018-04-16 23:03:42:499
-0.81;-9.877;-0.092;-2.105;-9.396;1.857;1.295;-0.481;-1.949;0.757;-0.454;0.149;0.6;3.6;30.3;50.47;5082;2018-04-16 23:03:42:509
-0.631;-10.57;-0.511;-2.113;-9.368;1.987;1.532;-1.389;-2.591;0.688;-0.236;0.108;0.6;3.6;30.3;50.47;5092;2018-04-16 23:03:42:519
-0.441;-11.314;-0.767;-2.113;-9.368;1.987;1.532;-1.389;-2.591;0.556;-0.016;0.076;0.4;4.0;30.4;50.47;5102;2018-04-16 23:03:42:529
-0.441;-11.314;-0.767;-2.13;-9.352;2.045;1.867;-2.382;-2.837;0.373;0.221;0.048;0.4;4.0;30.4;50.47;5112;2018-04-16 23:03:42:539
-0.166;-11.863;-0.685;-2.13;-9.352;2.045;1.867;-2.382;-2.837;0.177;0.391;0.022;0.2;4.4;30.3;50.47;5122;2018-04-16 23:03:42:549
-0.002;-12.051;-0.308;-2.144;-9.352;2.031;2.141;-2.7;-2.338;-0.028;0.45;-0.045;0.2;4.4;30.3;50.47;5132;2018-04-16 23:03:42:559
-0.002;-12.051;-0.308;-2.144;-9.352;2.031;2.141;-2.7;-2.338;-0.028;0.45;-0.045;0.0;4.8;30.2;50.47;5142;2018-04-16 23:03:42:569
-0.145;-12.016;0.074;-2.144;-9.352;2.031;2.141;-2.7;-2.338;-0.161;0.331;-0.16;0.0;4.8;30.2;50.47;5151;2018-04-16 23:03:42:578
-0.655;-11.818;0.378;-2.125;-9.366;1.986;1.882;-2.583;-1.8;-0.217;0.21;-0.243;-0.1;5.1;30.3;50.47;5161;2018-04-16 23:03:42:588
-0.655;-11.818;0.378;-2.125;-9.366;1.986;1.882;-2.583;-1.8;-0.257;0.097;-0.314;-0.1;5.1;30.3;50.69;5171;2018-04-16 23:03:42:598
-1.514;-11.645;0.257;-2.071;-9.388;1.934;0.873;-2.315;-1.51;-0.265;-0.022;-0.335;-0.3;5.4;30.4;50.69;5181;2018-04-16 23:03:42:608
-2.043;-11.349;-0.515;-2.004;-9.412;1.89;-0.04;-1.937;-2.405;-0.265;-0.172;-0.323;-0.3;5.4;30.4;50.69;5192;2018-04-16 23:03:42:619
-2.043;-11.349;-0.515;-2.004;-9.412;1.89;-0.04;-1.937;-2.405;-0.316;-0.327;-0.302;-0.4;5.7;30.4;50.69;5202;2018-04-16 23:03:42:629
-2.531;-10.806;-1.119;-1.934;-9.44;1.82;-0.774;-1.194;-2.964;-0.536;-0.47;-0.282;-0.4;5.7;30.4;50.69;5212;2018-04-16 23:03:42:639
-2.887;-10.3;-0.979;-1.934;-9.44;1.82;-0.774;-1.194;-2.964;-0.536;-0.47;-0.282;-0.5;5.9;30.3;50.69;5222;2018-04-16 23:03:42:649
-2.887;-10.3;-0.979;-1.934;-9.44;1.82;-0.774;-1.194;-2.964;-1.111;-0.261;-0.209;-0.5;5.9;30.3;50.69;5232;2018-04-16 23:03:42:659
-2.889;-9.802;-0.497;-1.879;-9.483;1.645;-1.042;-0.498;-2.294;-1.467;0.001;-0.14;-0.5;6.2;30.3;50.69;5242;2018-04-16 23:03:42:669
-2.995;-9.6;0.107;-1.868;-9.537;1.318;-1.127;-0.063;-1.211;-1.792;0.246;-0.103;-0.5;6.2;30.3;50.69;5252;2018-04-16 23:03:42:679
-2.995;-9.6;0.107;-1.868;-9.537;1.318;-1.127;-0.063;-1.211;-2.026;0.436;-0.088;-0.6;6.4;30.2;50.69;5262;2018-04-16 23:03:42:689
-3.345;-9.58;0.64;-1.874;-9.586;0.881;-1.594;-0.025;-0.135;-2.171;0.54;-0.073;-0.6;6.4;30.2;50.69;5272;2018-04-16 23:03:42:699
-3.648;-9.784;0.98;-1.874;-9.586;0.881;-1.594;-0.025;-0.135;-2.241;0.523;-0.059;-0.7;6.5;30.1;50.69;5282;2018-04-16 23:03:42:709
-3.648;-9.784;0.98;-1.873;-9.616;0.433;-1.99;-0.437;1.003;-2.254;0.43;-0.05;-0.7;6.5;30.1;50.69;5292;2018-04-16 23:03:42:719
-3.93;-10.28;1.732;-1.873;-9.616;0.433;-1.99;-0.437;1.003;-2.204;0.296;0.0;-0.8;6.5;30.2;50.69;5301;2018-04-16 23:03:42:728
-3.93;-10.28;1.732;-1.873;-9.616;0.433;-1.99;-0.437;1.003;-2.204;0.313;0.037;-0.8;6.5;30.2;50.69;5311;2018-04-16 23:03:42:738
-4.09;-10.653;2.559;-1.879;-9.625;0.002;-2.212;-1.028;2.557;-2.165;0.313;0.037;-0.8;6.4;30.2;50.69;5321;2018-04-16 23:03:42:748
-4.037;-10.398;3.117;-1.896;-9.613;-0.417;-2.24;-0.696;3.625;-2.078;0.553;0.103;-0.8;6.4;30.2;50.69;5332;2018-04-16 23:03:42:759
-4.487;-10.264;3.542;-1.896;-9.613;-0.417;-2.24;-0.696;3.625;-1.995;0.768;0.145;-0.9;6.2;30.2;50.69;5342;2018-04-16 23:03:42:769
-4.487;-10.264;3.542;-1.926;-9.581;-0.817;-2.801;-0.859;4.677;-1.807;1.096;0.243;-0.9;6.2;30.2;50.69;5352;2018-04-16 23:03:42:779
-4.684;-10.426;3.941;-1.926;-9.581;-0.817;-2.801;-0.859;4.677;-1.807;1.096;0.243;-1.1;5.8;30.3;50.69;5362;2018-04-16 23:03:42:789
-4.203;-10.259;2.81;-1.937;-9.542;-1.171;-2.266;-0.717;3.981;-1.575;1.508;0.228;-1.1;5.8;30.3;50.69;5372;2018-04-16 23:03:42:799
-4.203;-10.259;2.81;-1.937;-9.542;-1.171;-2.266;-0.717;3.981;-1.449;1.684;0.153;-1.2;5.4;30.2;50.69;5381;2018-04-16 23:03:42:808
-3.525;-10.421;-0.716;-1.937;-9.542;-1.171;-2.266;-0.717;3.981;-1.399;1.62;0.134;-1.2;5.4;30.2;50.69;5391;2018-04-16 23:03:42:818
-2.073;-10.338;-3.133;-1.923;-9.499;-1.498;-1.177;-0.935;-0.036;-1.361;1.206;0.165;-2.0;3.7;30.0;50.69;5401;2018-04-16 23:03:42:828
-2.073;-10.338;-3.133;-1.923;-9.499;-1.498;-1.177;-0.935;-0.036;-1.274;0.522;0.194;-2.0;3.7;30.0;50.69;5411;2018-04-16 23:03:42:838
-1.426;-9.614;-2.025;-1.943;-9.45;-1.758;0.342;-0.483;-0.842;-1.137;-0.044;0.189;-2.5;2.7;30.7;50.69;5421;2018-04-16 23:03:42:848
-1.426;-9.614;-2.025;-1.943;-9.45;-1.758;0.342;-0.483;-0.842;-0.985;-0.181;0.131;-2.5;2.7;30.7;50.69;5431;2018-04-16 23:03:42:858
-1.684;-8.935;0.152;-1.969;-9.411;-1.932;0.285;0.475;2.084;-0.845;0.156;0.073;-3.1;1.9;30.9;50.69;5441;2018-04-16 23:03:42:868
-1.044;-8.364;2.415;-1.929;-9.387;-2.083;1.14;1.099;4.678;-0.681;0.848;-0.009;-3.1;1.9;30.9;50.69;5452;2018-04-16 23:03:42:879
-0.958;-8.623;1.684;-1.929;-9.387;-2.083;1.14;1.099;4.678;-0.387;1.633;-0.166;-3.4;0.6;30.0;50.69;5462;2018-04-16 23:03:42:889
-0.958;-8.623;1.684;-1.77;-9.397;-2.176;0.821;0.668;3.031;0.044;2.456;-0.393;-3.4;0.6;30.0;50.69;5472;2018-04-16 23:03:42:899
-1.007;-8.762;0.468;-1.77;-9.397;-2.176;0.821;0.668;3.031;0.044;2.456;-0.393;-4.5;-0.5;29.4;50.69;5482;2018-04-16 23:03:42:909
-1.007;-8.806;-0.376;-1.77;-9.397;-2.176;0.162;0.626;1.809;0.376;2.513;-0.525;-4.5;-0.5;29.4;50.76;5492;2018-04-16 23:03:42:919
-1.401;-8.806;-0.376;-1.563;-9.431;-2.185;0.162;0.626;1.809;0.513;2.253;-0.574;-5.3;-0.4;29.8;50.76;5502;2018-04-16 23:03:42:929
-1.568;-8.987;-1.34;-1.563;-9.431;-2.185;0.162;0.626;1.809;0.596;1.572;-0.594;-5.3;-0.4;29.8;50.76;5512;2018-04-16 23:03:42:939
-2.132;-9.269;-2.075;-1.376;-9.474;-2.124;-0.348;0.375;0.536;0.522;1.089;-0.56;-6.4;-1.5;29.5;50.76;5522;2018-04-16 23:03:42:949
-2.132;-9.269;-2.075;-1.251;-9.503;-2.074;-1.573;0.56;-0.617;0.313;0.724;-0.491;-6.4;-1.5;29.5;50.76;5532;2018-04-16 23:03:42:959
-2.948;-8.714;-2.489;-1.251;-9.503;-2.074;-1.573;0.56;-0.617;0.313;0.724;-0.491;-6.8;-1.1;29.1;50.76;5542;2018-04-16 23:03:42:969
-2.948;-8.714;-2.489;-1.251;-9.503;-2.074;-1.573;0.56;-0.617;-0.409;0.299;-0.215;-6.8;-1.1;29.1;50.76;5552;2018-04-16 23:03:42:979
-3.061;-7.78;-1.785;-1.203;-9.49;-2.161;-1.858;1.71;0.376;-0.655;0.11;-0.121;-7.2;-1.2;28.6;50.76;5562;2018-04-16 23:03:42:989
-3.166;-7.812;-1.232;-1.203;-9.49;-2.161;-1.858;1.71;0.376;-0.772;-0.228;-0.057;-7.2;-1.2;28.6;50.76;5572;2018-04-16 23:03:42:999
-3.328;-7.421;-1.434;-1.205;-9.457;-2.3;-2.09;1.685;0.943;-0.831;-0.476;0.038;-6.8;-1.1;30.0;50.76;5582;2018-04-16 23:03:43:009
-3.328;-7.421;-1.434;-1.205;-9.457;-2.3;-2.09;1.685;0.943;-0.876;-0.604;0.132;-6.8;-1.1;30.0;50.76;5592;2018-04-16 23:03:43:019
-3.338;-6.753;-0.898;-1.257;-9.412;-2.45;-2.008;2.464;1.252;-0.85;-0.523;0.176;-6.7;-1.9;29.4;50.76;5602;2018-04-16 23:03:43:029
-3.338;-6.753;-0.898;-1.257;-9.412;-2.45;-2.008;2.464;1.252;-0.748;-0.38;0.192;-6.7;-1.9;29.4;50.76;5612;2018-04-16 23:03:43:039
-3.57;-6.458;-0.362;-1.315;-9.367;-2.587;-2.255;2.909;2.225;-0.748;-0.38;0.192;-7.2;-2.5;29.2;50.76;5622;2018-04-16 23:03:43:049
-3.227;-6.088;-0.182;-1.315;-9.367;-2.587;-2.255;2.909;2.225;-0.497;-0.228;0.265;-7.2;-2.5;29.2;50.76;5632;2018-04-16 23:03:43:059
-3.227;-6.088;-0.182;-1.377;-9.335;-2.672;-1.634;3.281;2.362;-0.305;-0.173;0.304;-7.0;-2.4;29.4;50.76;5642;2018-04-16 23:03:43:069
-2.413;-6.2;-0.619;-1.377;-9.335;-2.672;-1.634;3.281;2.362;-0.126;-0.194;0.326;-7.0;-2.4;29.4;50.76;5652;2018-04-16 23:03:43:079
-1.015;-6.71;-1.077;-1.448;-9.319;-2.688;-0.299;2.868;1.849;0.123;-0.211;0.341;-7.3;-2.6;29.5;50.76;5662;2018-04-16 23:03:43:089
-1.015;-6.71;-1.077;-1.448;-9.319;-2.688;-0.299;2.868;1.849;0.123;-0.211;0.341;-7.3;-2.6;29.5;50.76;5671;2018-04-16 23:03:43:098
-0.102;-7.293;-1.593;-1.522;-9.32;-2.645;1.137;2.255;1.256;0.263;-0.219;0.326;-7.7;-2.8;29.4;50.76;5682;2018-04-16 23:03:43:109
-0.102;-7.293;-1.593;-1.522;-9.32;-2.645;1.137;2.255;1.256;0.412;-0.308;0.319;-7.7;-2.8;29.4;50.76;5692;2018-04-16 23:03:43:119
0.368;-8.109;-2.501;-1.597;-9.331;-2.559;1.965;1.222;0.058;0.443;-0.411;0.324;-8.0;-3.0;29.2;50.76;5702;2018-04-16 23:03:43:129
0.594;-9.261;-3.417;-1.597;-9.331;-2.559;1.965;1.222;0.058;0.408;-0.509;0.354;-8.0;-3.0;29.2;50.76;5712;2018-04-16 23:03:43:139
0.594;-9.261;-3.417;-1.676;-9.341;-2.473;2.34;-0.229;-1.128;0.373;-0.551;0.37;-8.2;-3.1;29.0;50.76;5722;2018-04-16 23:03:43:149
0.933;-10.166;-4.023;-1.723;-9.341;-2.439;2.656;-0.825;-1.585;0.292;-0.622;0.403;-8.4;-3.2;29.0;50.76;5732;2018-04-16 23:03:43:159
1.711;-10.798;-4.64;-1.825;-9.336;-2.381;3.536;-1.461;-2.259;0.14;-0.7;0.327;-8.4;-3.2;29.0;50.76;5742;2018-04-16 23:03:43:169
1.711;-10.798;-4.64;-1.825;-9.336;-2.381;3.536;-1.461;-2.259;0.073;-0.698;0.202;-8.6;-3.3;28.7;50.76;5752;2018-04-16 23:03:43:179
1.966;-11.101;-5.23;-1.88;-9.333;-2.35;3.874;-1.893;-3.1;0.073;-0.698;0.202;-8.6;-3.3;28.7;50.76;5761;2018-04-16 23:03:43:188
1.749;-11.411;-5.606;-1.88;-9.333;-2.35;3.874;-1.893;-3.1;-0.062;-0.627;-0.071;-8.7;-3.2;28.7;50.76;5772;2018-04-16 23:03:43:199
1.749;-11.411;-5.606;-1.858;-9.337;-2.355;3.274;-1.941;-3.14;-0.14;-0.534;-0.26;-8.7;-3.2;28.7;50.76;5782;2018-04-16 23:03:43:209
1.171;-11.015;-5.431;-1.858;-9.337;-2.355;3.274;-1.941;-3.14;-0.161;-0.376;-0.447;-8.8;-3.2;28.7;50.76;5791;2018-04-16 23:03:43:218
0.567;-10.104;-5.847;-1.784;-9.347;-2.369;2.352;-0.756;-3.478;-0.112;-0.312;-0.518;-8.8;-3.2;28.7;50.76;5802;2018-04-16 23:03:43:229
0.567;-10.104;-5.847;-1.784;-9.347;-2.369;2.352;-0.756;-3.478;-0.112;-0.312;-0.518;-8.7;-3.2;28.7;54.47;5812;2018-04-16 23:03:43:239
0.04;-9.373;-6.631;-1.732;-9.357;-2.372;1.772;-0.017;-4.259;-0.078;-0.29;-0.585;-8.7;-3.2;28.7;54.47;5822;2018-04-16 23:03:43:249
0.04;-9.373;-6.631;-1.732;-9.357;-2.372;1.772;-0.017;-4.259;-0.046;-0.442;-0.691;-8.5;-3.2;28.7;54.47;5831;2018-04-16 23:03:43:258
-1.907;-8.763;-6.529;-1.628;-9.377;-2.364;-0.279;0.614;-4.165;0.018;-0.671;-0.618;-8.5;-3.2;28.7;54.47;5842;2018-04-16 23:03:43:269
-4.062;-8.983;-2.551;-1.59;-9.398;-2.308;-2.471;0.415;-0.243;0.25;-0.898;-0.385;-8.3;-3.2;28.8;54.47;5852;2018-04-16 23:03:43:279
-4.062;-8.983;-2.551;-1.59;-9.398;-2.308;-2.471;0.415;-0.243;0.25;-0.898;-0.385;-8.3;-3.2;28.8;54.47;5862;2018-04-16 23:03:43:289
-6.045;-8.697;-1.107;-1.611;-9.416;-2.217;-5.086;0.672;1.181;0.349;-0.856;-0.155;-8.1;-3.1;28.9;54.47;5872;2018-04-16 23:03:43:299
-7.957;-9.037;-0.871;-1.611;-9.416;-2.217;-5.086;0.672;1.181;0.211;-0.766;0.006;-8.1;-3.1;28.9;54.47;5882;2018-04-16 23:03:43:309
-7.957;-9.037;-0.871;-1.611;-9.416;-2.217;-6.859;-0.324;1.382;-0.023;-0.665;0.189;-7.8;-3.1;28.8;54.47;5892;2018-04-16 23:03:43:319
-8.668;-10.305;-1.646;-1.675;-9.409;-2.2;-6.859;-0.324;1.382;-0.16;-0.496;0.288;-7.8;-3.1;28.8;54.47;5902;2018-04-16 23:03:43:329
-7.301;-12.105;-5.279;-1.711;-9.401;-2.207;-6.655;-1.638;-1.031;-0.139;-0.429;0.308;-7.6;-2.9;28.9;54.47;5912;2018-04-16 23:03:43:339
-7.301;-12.105;-5.279;-1.711;-9.401;-2.207;-6.655;-1.638;-1.031;-0.018;-0.535;0.177;-7.6;-2.9;28.9;54.47;5922;2018-04-16 23:03:43:349
-1.592;-15.842;-6.849;-1.765;-9.393;-2.195;0.173;-6.449;-4.653;0.139;-0.401;-0.082;-7.3;-2.8;29.1;54.47;5932;2018-04-16 23:03:43:359
-0.01;-13.159;1.002;-1.704;-9.424;-2.112;1.653;-1.742;3.905;0.514;0.258;-0.323;-7.3;-2.8;29.1;54.47;5942;2018-04-16 23:03:43:369
-0.01;-6.438;3.628;-1.704;-9.424;-2.112;1.653;-1.742;3.905;0.804;1.032;-0.221;-7.1;-2.6;29.0;54.47;5953;2018-04-16 23:03:43:380
-0.546;-6.438;3.628;-1.626;-9.462;-1.999;0.006;4.616;6.259;0.804;1.032;-0.221;-7.1;-2.6;29.0;54.47;5962;2018-04-16 23:03:43:389
-1.737;-4.332;3.893;-1.626;-9.462;-1.999;0.006;4.616;6.259;0.684;0.919;-0.153;-6.8;-2.5;29.0;54.47;5972;2018-04-16 23:03:43:399
-2.503;-4.81;3.055;-1.558;-9.491;-1.915;-0.945;4.681;4.97;0.578;0.897;-0.175;-6.8;-2.5;29.0;54.47;5982;2018-04-16 23:03:43:409
-2.503;-4.81;3.055;-1.558;-9.491;-1.915;-0.945;4.681;4.97;0.511;1.1;-0.145;-6.6;-2.3;29.0;54.47;5992;2018-04-16 23:03:43:419
-4.112;-7.602;1.623;-1.531;-9.507;-1.858;-2.866;1.248;3.158;0.453;1.333;0.045;-6.6;-2.3;29.0;54.47;6002;2018-04-16 23:03:43:429
-4.784;-9.657;0.67;-1.556;-9.503;-1.855;-3.227;-0.154;2.526;0.332;1.382;0.341;-6.5;-2.0;29.0;54.47;6012;2018-04-16 23:03:43:439
-4.784;-9.657;0.67;-1.556;-9.503;-1.855;-3.227;-0.154;2.526;0.138;1.304;0.651;-6.5;-2.0;29.0;54.47;6022;2018-04-16 23:03:43:449
-4.802;-10.823;0.133;-1.556;-9.503;-1.855;-3.227;-0.154;2.526;-0.114;1.191;0.876;-6.4;-1.8;28.9;54.47;6032;2018-04-16 23:03:43:459
-4.232;-10.793;-0.219;-1.678;-9.47;-1.917;-2.979;-1.486;1.969;-0.461;0.948;0.98;-6.4;-1.8;28.9;54.47;6043;2018-04-16 23:03:43:470
-4.232;-10.793;-0.219;-1.678;-9.47;-1.917;-2.979;-1.486;1.969;-0.461;0.948;0.98;-6.4;-1.8;28.9;54.47;6052;2018-04-16 23:03:43:479
-4.136;-10.646;-0.37;-1.826;-9.416;-2.043;-2.31;-1.23;1.673;-0.536;0.81;0.957;-6.4;-1.6;29.0;54.47;6062;2018-04-16 23:03:43:489
-2.889;-9.967;-2.561;-1.914;-9.397;-2.052;-0.975;-0.57;-0.509;-0.165;-0.319;0.946;-6.5;-1.4;29.0;54.47;6073;2018-04-16 23:03:43:500
-2.889;-9.967;-2.561;-1.914;-9.397;-2.052;-0.975;-0.57;-0.509;-0.165;-0.319;0.946;-6.5;-1.4;29.0;54.47;6082;2018-04-16 23:03:43:509
-2.468;-9.924;-0.006;-1.914;-9.397;-2.052;-0.975;-0.57;-0.509;1.175;-2.601;0.498;-6.5;-1.2;28.9;54.47;6092;2018-04-16 23:03:43:519
-1.993;-9.858;-0.038;-2.257;-9.41;-1.589;-0.273;-0.599;1.625;1.134;-2.584;0.498;-6.5;-1.2;28.9;54.47;6102;2018-04-16 23:03:43:529
-1.993;-9.858;-0.038;-2.402;-9.413;-1.341;1.026;-0.378;1.373;0.888;-1.611;0.575;-6.5;-0.9;28.8;54.47;6112;2018-04-16 23:03:43:539
-1.312;-9.88;0.135;-2.402;-9.413;-1.341;1.026;-0.378;1.373;0.688;-0.864;0.524;-6.5;-0.9;28.8;54.47;6122;2018-04-16 23:03:43:549
-1.428;-10.027;0.302;-2.472;-9.408;-1.244;1.044;-0.619;1.546;0.297;0.111;0.336;-6.4;-0.7;28.8;54.47;6132;2018-04-16 23:03:43:559
-1.428;-10.027;0.302;-2.472;-9.408;-1.244;1.044;-0.619;1.546;0.297;0.111;0.336;-6.4;-0.7;28.8;54.47;6142;2018-04-16 23:03:43:569
-1.317;-9.987;0.036;-2.472;-9.408;-1.244;1.044;-0.619;1.546;0.233;0.451;0.266;-6.3;-0.4;28.7;54.09;6152;2018-04-16 23:03:43:579
-1.123;-10.062;-0.296;-2.503;-9.405;-1.208;1.246;-0.568;1.152;0.467;0.22;0.181;-6.3;-0.4;28.7;54.09;6162;2018-04-16 23:03:43:589
-1.123;-10.062;-0.296;-2.503;-9.405;-1.208;1.246;-0.568;1.152;0.467;0.22;0.181;-6.3;-0.1;28.6;54.09;6172;2018-04-16 23:03:43:599
-1.156;-9.985;-0.385;-2.512;-9.414;-1.109;1.356;-0.571;0.723;0.573;-0.046;0.064;-6.3;-0.1;28.6;54.09;6182;2018-04-16 23:03:43:609
-1.01;-9.458;-0.054;-2.492;-9.435;-0.966;1.393;0.039;1.1;0.605;-0.412;-0.088;-6.2;0.2;28.5;54.09;6192;2018-04-16 23:03:43:619
-1.184;-9.408;0.133;-2.492;-9.435;-0.966;1.393;0.039;1.1;0.637;-0.652;-0.128;-6.2;0.2;28.5;54.09;6202;2018-04-16 23:03:43:629
-1.184;-9.408;0.133;-2.492;-9.435;-0.966;1.393;0.039;1.1;0.637;-0.652;-0.128;-6.1;0.6;28.5;54.09;6212;2018-04-16 23:03:43:639
-1.035;-9.124;0.045;-2.473;-9.456;-0.803;1.438;0.331;0.848;0.652;-0.762;-0.114;-6.1;0.6;28.5;54.09;6222;2018-04-16 23:03:43:649
-1.748;-8.997;0.041;-2.473;-9.456;-0.803;1.438;0.331;0.848;0.667;-0.889;-0.133;-6.1;1.0;28.4;54.09;6232;2018-04-16 23:03:43:659
-2.075;-8.886;0.01;-2.459;-9.472;-0.63;0.499;0.445;0.653;0.622;-0.845;-0.082;-6.1;1.0;28.4;54.09;6242;2018-04-16 23:03:43:669
-2.132;-8.771;0.012;-2.454;-9.482;-0.479;0.322;0.711;0.491;0.553;-0.751;-0.055;-6.0;1.3;28.5;54.09;6253;2018-04-16 23:03:43:680
-2.132;-8.771;0.012;-2.454;-9.482;-0.479;0.322;0.711;0.491;0.553;-0.751;-0.055;-6.0;1.3;28.5;54.09;6262;2018-04-16 23:03:43:689
-2.081;-8.8;0.038;-2.448;-9.489;-0.365;0.358;0.644;0.385;0.452;-0.553;-0.051;-6.0;1.7;28.5;54.09;6272;2018-04-16 23:03:43:699
-2.095;-8.972;-0.042;-2.448;-9.489;-0.365;0.358;0.644;0.385;0.407;-0.417;-0.062;-6.0;1.7;28.5;54.09;6282;2018-04-16 23:03:43:709
-2.095;-8.972;-0.042;-2.448;-9.489;-0.365;0.358;0.644;0.385;0.407;-0.417;-0.062;-5.8;2.0;28.4;54.09;6292;2018-04-16 23:03:43:719
-1.755;-8.981;-0.204;-2.439;-9.495;-0.267;0.545;0.471;0.12;0.407;-0.387;-0.043;-5.8;2.0;28.4;54.09;6302;2018-04-16 23:03:43:729
-1.755;-8.981;-0.204;-2.439;-9.495;-0.267;0.545;0.471;0.12;0.453;-0.432;-0.043;-5.6;2.4;28.6;54.09;6312;2018-04-16 23:03:43:739
-1.658;-9.205;-0.176;-2.429;-9.5;-0.16;0.771;0.295;-0.016;0.508;-0.468;-0.048;-5.6;2.4;28.6;54.09;6322;2018-04-16 23:03:43:749
-1.678;-9.28;0.043;-2.429;-9.5;-0.16;0.771;0.295;-0.016;0.562;-0.464;-0.049;-5.3;2.7;28.6;54.09;6332;2018-04-16 23:03:43:759
-1.678;-9.28;0.043;-2.415;-9.505;-0.03;0.707;0.217;0.164;0.591;-0.439;-0.053;-5.1;2.9;28.6;54.09;6342;2018-04-16 23:03:43:769
-1.725;-9.304;0.229;-2.415;-9.505;-0.03;0.707;0.217;0.164;0.667;-0.165;-0.071;-5.1;2.9;28.6;54.09;6352;2018-04-16 23:03:43:779
-1.786;-9.281;0.268;-2.397;-9.508;0.109;0.611;0.227;0.159;0.667;-0.165;-0.071;-4.8;3.3;28.6;54.09;6362;2018-04-16 23:03:43:789
-1.786;-9.154;0.249;-2.381;-9.511;0.225;0.473;0.356;0.024;0.632;0.205;-0.07;-4.8;3.3;28.6;54.09;6372;2018-04-16 23:03:43:799
-1.908;-9.154;0.249;-2.381;-9.511;0.225;0.473;0.356;0.024;0.606;0.382;-0.05;-4.4;3.7;28.7;54.09;6382;2018-04-16 23:03:43:809
-1.878;-9.05;0.087;-2.381;-9.511;0.225;0.473;0.356;0.024;0.606;0.382;-0.05;-4.4;3.7;28.7;54.09;6392;2018-04-16 23:03:43:819
-1.967;-9.129;0.036;-2.372;-9.51;0.321;0.497;0.471;-0.275;0.613;0.406;-0.044;-4.2;4.1;28.5;54.09;6402;2018-04-16 23:03:43:829
-1.967;-9.129;0.036;-2.371;-9.506;0.426;0.317;0.319;-0.407;0.648;0.331;-0.006;-4.2;4.1;28.5;54.09;6412;2018-04-16 23:03:43:839
-2.057;-9.248;0.032;-2.371;-9.506;0.426;0.317;0.319;-0.407;0.667;0.25;0.032;-4.1;4.4;28.5;54.09;6422;2018-04-16 23:03:43:849
-2.052;-9.357;0.043;-2.376;-9.502;0.477;0.301;0.218;-0.441;0.668;0.206;0.053;-4.0;4.6;28.5;54.09;6432;2018-04-16 23:03:43:859
-2.029;-9.337;0.134;-2.394;-9.491;0.594;0.364;0.154;-0.46;0.657;0.044;0.117;-4.0;4.6;28.5;54.09;6442;2018-04-16 23:03:43:869
-2.029;-9.337;0.134;-2.394;-9.491;0.594;0.364;0.154;-0.46;0.657;0.044;0.117;-3.9;5.0;28.6;54.09;6452;2018-04-16 23:03:43:879
-2.085;-9.388;0.224;-2.406;-9.484;0.66;0.321;0.096;-0.436;0.661;-0.01;0.138;-3.9;5.0;28.6;54.09;6462;2018-04-16 23:03:43:889
-2.049;-9.439;0.303;-2.406;-9.484;0.66;0.321;0.096;-0.436;0.687;-0.077;0.17;-3.9;5.4;28.5;52.81;6472;2018-04-16 23:03:43:899
-1.903;-9.203;0.296;-2.434;-9.467;0.79;0.42;0.08;-0.491;0.727;-0.123;0.177;-3.9;5.4;28.5;52.81;6482;2018-04-16 23:03:43:909
-1.903;-9.203;0.296;-2.434;-9.467;0.79;0.42;0.08;-0.491;0.727;-0.123;0.177;-3.8;5.7;28.5;52.81;6492;2018-04-16 23:03:43:919
-1.603;-8.786;0.14;-2.462;-9.446;0.935;0.716;0.503;-0.718;0.76;-0.155;0.182;-3.8;5.7;28.5;52.81;6502;2018-04-16 23:03:43:929
-1.603;-8.786;0.14;-2.462;-9.446;0.935;0.716;0.503;-0.718;0.864;-0.271;0.164;-3.8;6.0;28.5;52.81;6513;2018-04-16 23:03:43:940
-1.469;-8.862;-0.063;-2.485;-9.421;1.11;1.016;0.559;-1.174;0.963;-0.418;0.126;-3.8;6.0;28.5;52.81;6522;2018-04-16 23:03:43:949
-1.407;-9.572;-0.281;-2.485;-9.421;1.11;1.016;0.559;-1.174;1.019;-0.567;0.098;-3.7;6.4;28.3;52.81;6532;2018-04-16 23:03:43:959
-1.21;-10.04;-0.432;-2.48;-9.396;1.315;1.122;-0.388;-1.661;0.974;-0.671;0.076;-3.7;6.4;28.3;52.81;6542;2018-04-16 23:03:43:969
-1.21;-10.04;-0.432;-2.48;-9.396;1.315;1.122;-0.388;-1.661;0.845;-0.74;0.051;-3.6;6.9;28.2;52.81;6552;2018-04-16 23:03:43:979
-1.008;-10.005;-0.427;-2.458;-9.374;1.498;1.45;-0.631;-1.926;0.735;-0.828;0.002;-3.6;6.9;28.2;52.81;6562;2018-04-16 23:03:43:989
-1.27;-10.035;-0.122;-2.458;-9.374;1.498;1.45;-0.631;-1.926;0.735;-0.828;0.002;-3.6;7.4;28.0;52.81;6572;2018-04-16 23:03:43:999
-2.054;-10.38;0.153;-2.405;-9.359;1.67;0.955;-0.714;-1.715;0.779;-0.992;-0.123;-3.6;7.4;28.0;52.81;6582;2018-04-16 23:03:44:009
-2.054;-10.38;0.153;-2.333;-9.335;1.893;-0.109;-1.538;-1.721;0.98;-0.932;-0.214;-3.5;7.8;28.0;52.81;6593;2018-04-16 23:03:44:020
-2.532;-11.271;0.069;-2.333;-9.335;1.893;-0.109;-1.538;-1.721;0.991;-0.356;-0.259;-3.5;7.8;28.0;52.81;6602;2018-04-16 23:03:44:029
-2.532;-11.271;0.069;-2.281;-9.313;2.059;-0.137;-1.891;-2.25;0.804;0.287;-0.296;-3.5;8.3;27.8;52.81;6612;2018-04-16 23:03:44:039
-2.298;-11.004;-0.339;-2.281;-9.313;2.059;-0.137;-1.891;-2.25;0.804;0.287;-0.296;-3.5;8.3;27.8;52.81;6622;2018-04-16 23:03:44:049
-1.962;-10.767;-0.717;-2.271;-9.305;2.103;0.309;-1.461;-2.82;0.472;1.319;-0.298;-3.5;8.7;27.4;52.81;6632;2018-04-16 23:03:44:059
-1.962;-10.767;-0.717;-2.271;-9.305;2.103;0.309;-1.461;-2.82;0.457;1.475;-0.242;-3.5;8.7;27.4;52.81;6642;2018-04-16 23:03:44:069
-1.101;-10.898;-1.256;-2.271;-9.305;2.103;0.309;-1.461;-2.82;0.392;1.436;-0.208;-3.5;9.2;27.2;52.81;6652;2018-04-16 23:03:44:079
-0.741;-11.032;-1.435;-2.291;-9.298;2.115;1.392;-1.676;-3.456;0.392;1.436;-0.208;-3.6;9.4;27.1;52.81;6662;2018-04-16 23:03:44:089
-0.741;-11.032;-1.435;-2.291;-9.298;2.115;1.392;-1.676;-3.456;-0.027;1.032;-0.215;-3.6;9.4;27.1;52.81;6672;2018-04-16 23:03:44:099
-0.737;-11.498;-1.484;-2.293;-9.309;2.061;1.555;-2.189;-3.545;-0.38;0.558;-0.231;-3.6;10.0;26.9;52.81;6682;2018-04-16 23:03:44:109
-0.515;-12.285;-1.101;-2.293;-9.309;2.061;1.555;-2.189;-3.545;-0.38;0.558;-0.231;-3.6;10.0;26.9;52.81;6692;2018-04-16 23:03:44:119
-0.324;-12.809;-0.675;-2.261;-9.34;1.953;1.779;-3.182;-2.998;-0.583;0.183;-0.252;-3.7;10.4;26.8;52.81;6702;2018-04-16 23:03:44:129
-0.324;-12.809;-0.675;-2.261;-9.34;1.953;1.779;-3.182;-2.998;-0.892;-0.379;-0.303;-3.7;10.4;26.8;52.81;6712;2018-04-16 23:03:44:139
-0.314;-12.586;-0.087;-2.189;-9.388;1.802;1.876;-3.199;-1.889;-0.98;-0.541;-0.326;-3.8;10.8;26.7;52.81;6722;2018-04-16 23:03:44:149
-0.314;-12.586;-0.087;-2.189;-9.388;1.802;1.876;-3.199;-1.889;-1.161;-0.886;-0.337;-3.8;10.8;26.7;52.81;6732;2018-04-16 23:03:44:159
-1.3;-10.862;0.9;-2.097;-9.442;1.62;0.797;-1.421;-0.72;-1.252;-0.94;-0.292;-3.9;11.1;26.6;52.81;6742;2018-04-16 23:03:44:169
-2.132;-9.782;0.673;-2.097;-9.442;1.62;0.797;-1.421;-0.72;-1.368;-0.885;-0.28;-3.9;11.1;26.6;52.81;6752;2018-04-16 23:03:44:179
-2.132;-9.782;0.673;-2.018;-9.496;1.385;-0.115;-0.285;-0.713;-1.537;-0.754;-0.287;-4.0;11.4;26.4;52.81;6762;2018-04-16 23:03:44:189
-3.571;-9.782;-0.251;-2.018;-9.496;1.385;-0.115;-0.285;-0.713;-1.537;-0.754;-0.287;-4.0;11.4;26.4;52.81;6772;2018-04-16 23:03:44:199
-4.478;-10.015;-1.183;-1.96;-9.549;1.073;-2.519;-0.466;-2.256;-1.87;-0.539;-0.22;-4.0;11.7;26.4;52.81;6782;2018-04-16 23:03:44:209
-4.478;-10.015;-1.183;-1.96;-9.549;1.073;-2.519;-0.466;-2.256;-2.287;-0.374;-0.143;-4.0;11.7;26.4;52.03;6792;2018-04-16 23:03:44:219
-4.556;-10.404;0.806;-1.926;-9.594;0.647;-2.63;-0.81;0.159;-2.513;-0.122;-0.127;-4.0;11.8;26.3;52.03;6802;2018-04-16 23:03:44:229
-4.126;-10.415;3.448;-1.903;-9.619;0.133;-2.239;-0.804;3.768;-2.613;0.335;-0.137;-4.0;11.8;26.3;52.03;6813;2018-04-16 23:03:44:240
-4.002;-10.324;4.288;-1.903;-9.619;0.133;-2.239;-0.804;3.768;-2.622;0.893;-0.134;-4.0;11.8;26.4;52.03;6822;2018-04-16 23:03:44:249
-4.002;-10.324;4.288;-1.903;-9.619;0.133;-2.239;-0.804;3.768;-2.622;0.893;-0.134;-4.0;11.8;26.4;52.03;6832;2018-04-16 23:03:44:259
-4.432;-10.44;4.058;-1.875;-9.617;-0.409;-2.285;-0.719;4.617;-2.486;1.588;-0.12;-4.1;11.7;26.4;52.03;6842;2018-04-16 23:03:44:269
-5.066;-10.641;3.273;-1.844;-9.59;-0.898;-3.222;-1.051;4.171;-2.145;1.747;-0.016;-4.1;11.7;26.4;52.03;6852;2018-04-16 23:03:44:279
-5.066;-10.641;3.273;-1.844;-9.59;-0.898;-3.222;-1.051;4.171;-2.023;1.848;-0.033;-4.3;11.5;26.5;52.03;6862;2018-04-16 23:03:44:289
-5.401;-10.392;3.212;-1.844;-9.59;-0.898;-3.222;-1.051;4.171;-2.023;1.848;-0.033;-4.3;11.5;26.5;52.03;6872;2018-04-16 23:03:44:299
-5.401;-10.064;2.453;-1.792;-9.548;-1.34;-3.687;-0.848;4.385;-1.883;2.011;-0.055;-4.6;11.2;26.5;52.03;6882;2018-04-16 23:03:44:309
-5.224;-10.064;2.453;-1.792;-9.548;-1.34;-3.687;-0.848;4.385;-1.687;2.294;-0.034;-4.6;11.2;26.5;52.03;6891;2018-04-16 23:03:44:318
-5.322;-9.398;2.164;-1.715;-9.498;-1.738;-3.522;-0.327;4.238;-1.412;2.463;-0.018;-5.7;9.6;26.7;52.03;6902;2018-04-16 23:03:44:329
-5.322;-9.398;2.164;-1.715;-9.498;-1.738;-3.522;-0.327;4.238;-1.412;2.463;-0.018;-5.7;9.6;26.7;52.03;6912;2018-04-16 23:03:44:339
-4.814;-8.807;2.0;-1.633;-9.449;-2.054;-3.18;0.642;4.055;-1.189;2.501;0.054;-7.1;8.1;26.8;52.03;6922;2018-04-16 23:03:44:349
-3.688;-8.507;-1.231;-1.575;-9.413;-2.255;-1.588;0.984;0.305;-0.623;1.939;0.097;-7.1;8.1;26.8;52.03;6932;2018-04-16 23:03:44:359
-2.607;-8.49;-1.782;-1.575;-9.413;-2.255;-1.588;0.984;0.305;-0.211;0.74;0.098;-8.3;6.8;27.2;52.03;6942;2018-04-16 23:03:44:369
-2.607;-8.49;-1.782;-1.597;-9.418;-2.219;-0.639;0.654;1.168;0.254;-0.619;0.002;-8.3;6.8;27.2;52.03;6952;2018-04-16 23:03:44:379
-1.792;-8.884;-0.651;-1.597;-9.418;-2.219;-0.639;0.654;1.168;0.38;-0.784;-0.086;-9.0;6.5;26.6;52.03;6962;2018-04-16 23:03:44:389
-1.792;-8.884;-0.651;-1.597;-9.418;-2.219;-0.639;0.654;1.168;0.38;-0.784;-0.086;-9.0;6.5;26.6;52.03;6972;2018-04-16 23:03:44:399
-0.379;-9.16;0.451;-1.582;-9.442;-2.126;1.202;0.281;2.578;0.351;-0.315;-0.268;-9.4;6.2;27.2;52.03;6982;2018-04-16 23:03:44:409
0.114;-9.78;1.419;-1.42;-9.472;-2.108;1.676;-0.178;3.095;0.145;1.275;-0.481;-9.4;6.2;27.2;52.03;6992;2018-04-16 23:03:44:419
0.079;-9.452;-0.698;-1.42;-9.472;-2.108;1.676;-0.178;3.095;0.034;2.319;-0.585;-9.6;5.5;27.4;52.03;7002;2018-04-16 23:03:44:429
0.079;-9.452;-0.698;-1.42;-9.472;-2.108;1.676;-0.178;3.095;-0.049;2.788;-0.662;-9.6;5.5;27.4;52.03;7012;2018-04-16 23:03:44:439
-0.098;-9.29;-1.672;-1.17;-9.49;-2.178;1.072;0.2;0.505;-0.061;2.734;-0.672;-10.9;5.2;27.1;52.03;7022;2018-04-16 23:03:44:449
-0.098;-9.29;-1.672;-1.17;-9.49;-2.178;1.072;0.2;0.505;-0.061;2.734;-0.672;-10.9;5.2;27.1;52.03;7032;2018-04-16 23:03:44:459
-1.057;-9.182;-2.105;-0.984;-9.505;-2.204;-0.429;0.326;0.261;0.054;1.675;-0.615;-11.4;5.6;26.7;52.03;7042;2018-04-16 23:03:44:469
-2.635;-8.545;-2.107;-0.984;-9.505;-2.204;-0.429;0.326;0.261;0.072;0.348;-0.445;-11.8;4.9;27.1;52.03;7051;2018-04-16 23:03:44:478
-2.635;-8.545;-2.107;-0.927;-9.511;-2.203;-1.942;1.296;0.385;-0.082;-0.496;-0.312;-11.8;4.9;27.1;52.03;7062;2018-04-16 23:03:44:489
-3.381;-7.24;-0.553;-0.927;-9.511;-2.203;-1.942;1.296;0.385;-0.476;-1.111;-0.054;-11.8;4.6;26.5;52.03;7072;2018-04-16 23:03:44:499
-3.182;-6.287;0.743;-0.965;-9.49;-2.274;-2.231;3.013;2.735;-0.476;-1.111;-0.054;-11.8;4.6;26.5;52.03;7081;2018-04-16 23:03:44:508
-3.255;-6.146;0.772;-0.965;-9.49;-2.274;-2.231;3.013;2.735;-0.764;-0.876;0.144;-11.3;5.0;27.5;52.03;7092;2018-04-16 23:03:44:519
-3.433;-6.09;0.566;-1.03;-9.449;-2.413;-2.321;3.302;3.176;-0.854;-0.538;0.189;-11.3;5.0;27.5;52.03;7102;2018-04-16 23:03:44:529
-3.433;-6.09;0.566;-1.03;-9.449;-2.413;-2.321;3.302;3.176;-0.809;-0.117;0.215;-11.3;4.4;27.0;52.74;7112;2018-04-16 23:03:44:539
-3.255;-5.875;0.225;-1.077;-9.405;-2.56;-2.177;3.53;2.785;-0.524;-0.013;0.23;-11.3;4.4;27.0;52.74;7122;2018-04-16 23:03:44:549
-2.792;-5.437;-0.034;-1.13;-9.38;-2.627;-1.487;4.04;2.567;-0.236;-0.125;0.274;-11.3;4.4;27.2;52.74;7132;2018-04-16 23:03:44:559
-2.155;-5.115;-0.13;-1.13;-9.38;-2.627;-1.487;4.04;2.567;-0.236;-0.125;0.274;-11.3;4.4;27.2;52.74;7142;2018-04-16 23:03:44:569
-2.155;-5.115;-0.13;-1.219;-9.384;-2.573;-0.457;4.283;2.186;0.217;-0.447;0.337;-11.8;4.0;27.1;52.74;7152;2018-04-16 23:03:44:579
-1.383;-5.222;-0.554;-1.219;-9.384;-2.573;-0.457;4.283;2.186;0.524;-0.677;0.436;-11.8;4.0;27.1;52.74;7162;2018-04-16 23:03:44:589
-1.383;-5.222;-0.554;-1.219;-9.384;-2.573;-0.457;4.283;2.186;0.524;-0.677;0.436;-12.2;3.8;27.1;52.74;7172;2018-04-16 23:03:44:599
-0.66;-6.305;-1.358;-1.345;-9.401;-2.447;0.685;3.095;1.09;0.619;-0.805;0.517;-12.2;3.8;27.1;52.74;7182;2018-04-16 23:03:44:609
-0.326;-8.402;-2.188;-1.345;-9.401;-2.447;0.685;3.095;1.09;0.512;-1.009;0.731;-12.5;3.6;26.9;52.74;7192;2018-04-16 23:03:44:619
-0.297;-10.402;-3.355;-1.514;-9.408;-2.316;1.223;0.484;-0.065;0.367;-1.07;0.823;-12.5;3.6;26.9;52.74;7202;2018-04-16 23:03:44:629
-0.297;-10.402;-3.355;-1.514;-9.408;-2.316;1.223;0.484;-0.065;0.173;-1.199;0.87;-12.8;3.6;26.9;52.74;7212;2018-04-16 23:03:44:639
-0.233;-11.929;-4.816;-1.726;-9.393;-2.23;1.492;-2.537;-2.586;-0.064;-1.437;0.866;-12.8;3.6;26.9;52.74;7222;2018-04-16 23:03:44:649
0.716;-13.133;-7.023;-1.726;-9.393;-2.23;1.492;-2.537;-2.586;-0.282;-1.707;0.709;-12.9;3.6;26.8;52.74;7233;2018-04-16 23:03:44:660
1.393;-14.048;-7.651;-1.927;-9.356;-2.219;2.891;-4.17;-5.315;-0.408;-1.767;0.235;-12.9;3.6;26.8;52.74;7242;2018-04-16 23:03:44:669
1.393;-14.048;-7.651;-1.927;-9.356;-2.219;2.891;-4.17;-5.315;-0.408;-1.767;0.235;-12.8;3.7;26.9;52.74;7253;2018-04-16 23:03:44:680
2.122;-13.732;-7.025;-2.012;-9.334;-2.235;4.134;-4.398;-4.789;-0.398;-1.307;-0.024;-12.8;3.7;26.9;52.74;7262;2018-04-16 23:03:44:689
2.71;-12.724;-6.525;-2.012;-9.334;-2.235;4.134;-4.398;-4.789;-0.198;-0.081;-0.291;-12.7;3.8;27.0;52.74;7272;2018-04-16 23:03:44:699
2.309;-11.595;-7.891;-1.958;-9.338;-2.267;4.557;-3.204;-4.558;0.028;0.63;-0.426;-12.7;3.8;27.0;52.74;7282;2018-04-16 23:03:44:709
2.309;-11.595;-7.891;-1.824;-9.372;-2.239;3.646;-1.56;-5.684;0.297;0.856;-0.513;-12.6;3.7;26.9;52.74;7292;2018-04-16 23:03:44:719
1.119;-10.973;-7.719;-1.824;-9.372;-2.239;3.646;-1.56;-5.684;0.668;0.208;-0.683;-12.6;3.7;26.9;52.74;7301;2018-04-16 23:03:44:728
-1.9;-11.455;-3.923;-1.707;-9.426;-2.1;-0.193;-2.029;-1.823;0.755;-0.448;-0.63;-12.6;3.7;27.0;52.74;7312;2018-04-16 23:03:44:739
-1.9;-11.455;-3.923;-1.707;-9.426;-2.1;-0.193;-2.029;-1.823;0.755;-0.448;-0.63;-12.6;3.7;27.0;52.74;7322;2018-04-16 23:03:44:749
-4.256;-10.613;0.213;-1.707;-9.426;-2.1;-0.193;-2.029;-1.823;0.731;-0.778;-0.483;-12.4;3.8;27.1;52.74;7332;2018-04-16 23:03:44:759
-5.598;-9.26;1.567;-1.662;-9.465;-1.953;-3.003;-0.709;2.827;0.558;-0.793;-0.349;-12.4;3.8;27.1;52.74;7342;2018-04-16 23:03:44:769
-5.598;-9.26;1.567;-1.627;-9.479;-1.918;-4.987;0.275;3.559;0.125;-0.417;-0.277;-12.1;4.0;27.1;52.74;7352;2018-04-16 23:03:44:779
-6.962;-9.489;1.468;-1.627;-9.479;-1.918;-4.987;0.275;3.559;-0.293;-0.093;-0.089;-12.1;4.0;27.1;52.74;7362;2018-04-16 23:03:44:789
-6.962;-9.489;1.468;-1.627;-9.479;-1.918;-4.987;0.275;3.559;-0.293;-0.093;-0.089;-11.9;4.1;27.2;52.74;7373;2018-04-16 23:03:44:800
-6.766;-9.995;-1.693;-1.638;-9.463;-1.984;-5.128;-0.532;0.292;-0.435;-0.076;0.14;-11.9;4.1;27.2;52.74;7382;2018-04-16 23:03:44:809
-4.271;-10.005;-8.133;-1.638;-9.463;-1.984;-5.128;-0.532;0.292;-0.511;-0.555;0.34;-11.7;4.2;27.2;52.74;7392;2018-04-16 23:03:44:819
-4.271;-10.005;-8.133;-1.724;-9.433;-2.055;-1.69;-0.439;-5.818;-0.343;-1.037;0.285;-11.7;4.2;27.2;52.74;7402;2018-04-16 23:03:44:829
-1.616;-9.076;-3.886;-1.724;-9.433;-2.055;-1.69;-0.439;-5.818;-0.343;-1.037;0.285;-11.5;4.3;27.4;52.74;7412;2018-04-16 23:03:44:839
-1.563;-6.955;2.17;-1.762;-9.426;-2.055;0.723;1.799;2.565;0.082;-0.112;0.002;-11.5;4.3;27.4;52.74;7422;2018-04-16 23:03:44:849
-1.563;-6.955;2.17;-1.762;-9.426;-2.055;0.723;1.799;2.565;0.406;0.897;-0.238;-11.2;4.5;27.5;52.74;7433;2018-04-16 23:03:44:860
-3.664;-6.935;2.35;-1.687;-9.449;-2.009;-1.977;2.514;4.359;0.458;0.924;-0.195;-11.2;4.5;27.5;52.74;7442;2018-04-16 23:03:44:869
-3.816;-7.135;1.032;-1.687;-9.449;-2.009;-1.977;2.514;4.359;0.42;0.865;-0.013;-11.0;4.7;27.7;55.9;7452;2018-04-16 23:03:44:879
-3.873;-7.733;0.594;-1.654;-9.465;-1.959;-2.193;2.18;2.82;0.237;0.757;0.296;-11.0;4.7;27.7;55.9;7462;2018-04-16 23:03:44:889
-3.873;-7.733;0.594;-1.654;-9.465;-1.959;-2.193;2.18;2.82;0.237;0.757;0.296;-10.9;4.9;27.8;55.9;7472;2018-04-16 23:03:44:899
-4.051;-8.46;0.49;-1.704;-9.458;-1.951;-2.347;0.998;2.44;0.038;0.749;0.441;-10.9;4.9;27.8;55.9;7482;2018-04-16 23:03:44:909
-4.385;-9.712;0.351;-1.704;-9.458;-1.951;-2.347;0.998;2.44;-0.426;0.867;0.626;-10.8;5.1;27.9;55.9;7492;2018-04-16 23:03:44:919
-3.915;-9.62;0.029;-1.787;-9.425;-2.035;-2.486;-0.36;2.286;-0.584;0.815;0.67;-10.8;5.1;27.9;55.9;7502;2018-04-16 23:03:44:929
-3.915;-9.62;0.029;-1.894;-9.373;-2.173;-1.62;0.205;1.905;-0.72;0.551;0.637;-10.7;5.3;27.9;55.9;7512;2018-04-16 23:03:44:939
-3.346;-8.952;-0.457;-1.894;-9.373;-2.173;-1.62;0.205;1.905;-0.731;0.246;0.583;-10.7;5.3;27.9;55.9;7522;2018-04-16 23:03:44:949
-3.346;-8.952;-0.457;-1.894;-9.373;-2.173;-1.62;0.205;1.905;-0.731;0.246;0.583;-10.7;5.4;27.9;55.9;7532;2018-04-16 23:03:44:959
-2.977;-8.472;-1.416;-2.015;-9.324;-2.273;-0.962;0.852;0.857;-0.494;-0.409;0.583;-10.7;5.4;27.9;55.9;7542;2018-04-16 23:03:44:969
-2.103;-8.659;-1.195;-2.015;-9.324;-2.273;-0.962;0.852;0.857;0.294;-1.998;0.591;-10.8;5.4;27.9;55.9;7552;2018-04-16 23:03:44:979
-2.235;-9.855;-0.411;-2.212;-9.312;-2.134;0.098;0.325;1.166;0.535;-2.748;0.424;-10.8;5.4;27.9;55.9;7562;2018-04-16 23:03:44:989
-2.235;-9.855;-0.411;-2.39;-9.317;-1.911;0.033;-0.915;1.848;0.423;-2.833;0.319;-10.9;5.5;28.0;55.9;7572;2018-04-16 23:03:44:999
-2.401;-10.348;0.084;-2.39;-9.317;-1.911;0.033;-0.915;1.848;0.423;-2.833;0.319;-10.9;5.5;28.0;55.9;7582;2018-04-16 23:03:45:009
-2.401;-10.348;0.084;-2.39;-9.317;-1.911;0.033;-0.915;1.848;0.198;-2.707;0.323;-10.9;5.8;28.1;55.9;7592;2018-04-16 23:03:45:019
-1.931;-10.379;0.528;-2.551;-9.308;-1.738;0.62;-1.071;2.266;0.148;-2.582;0.446;-10.9;5.8;28.1;55.9;7602;2018-04-16 23:03:45:029
-0.546;-9.782;1.141;-2.551;-9.308;-1.738;0.62;-1.071;2.266;0.325;-2.55;0.463;-10.7;5.9;28.2;55.9;7612;2018-04-16 23:03:45:039
0.208;-9.664;1.478;-2.696;-9.307;-1.512;2.472;-0.395;2.848;0.531;-2.551;0.42;-10.6;6.0;28.2;55.9;7622;2018-04-16 23:03:45:049
0.208;-9.664;1.478;-2.696;-9.307;-1.512;2.472;-0.395;2.469;1.252;-2.327;0.12;-10.6;6.0;28.2;55.9;7632;2018-04-16 23:03:45:059
0.329;-9.808;1.334;-2.746;-9.346;-1.135;3.075;-0.462;2.469;1.527;-1.963;-0.158;-10.3;6.1;28.2;55.9;7642;2018-04-16 23:03:45:069
-0.433;-10.094;1.232;-2.746;-9.346;-1.135;3.075;-0.462;2.469;1.596;-1.467;-0.367;-10.3;6.1;28.2;55.9;7652;2018-04-16 23:03:45:079
-1.148;-9.603;1.033;-2.691;-9.4;-0.751;1.929;-0.609;2.008;1.528;-0.497;-0.43;-10.0;6.3;28.4;55.9;7662;2018-04-16 23:03:45:089
-1.148;-9.603;1.033;-2.691;-9.4;-0.751;1.929;-0.609;2.008;1.528;-0.497;-0.43;-9.8;6.4;28.4;55.9;7672;2018-04-16 23:03:45:099
-1.456;-8.778;0.287;-2.6;-9.444;-0.459;1.295;0.394;1.024;1.429;0.219;-0.428;-9.8;6.4;28.4;55.9;7682;2018-04-16 23:03:45:109
-1.456;-8.778;0.287;-2.6;-9.444;-0.459;1.295;0.394;1.024;1.257;1.06;-0.512;-9.5;6.7;28.3;55.9;7692;2018-04-16 23:03:45:119
-1.939;-8.818;-0.198;-2.495;-9.48;-0.274;0.556;0.662;0.076;1.192;1.381;-0.536;-9.5;6.7;28.3;55.9;7702;2018-04-16 23:03:45:129
-2.265;-9.062;-0.716;-2.495;-9.48;-0.274;0.556;0.662;0.076;1.192;1.381;-0.536;-8.8;7.2;28.3;55.9;7712;2018-04-16 23:03:45:139
-2.343;-9.279;-1.073;-2.396;-9.509;-0.133;0.108;0.431;-0.697;1.112;1.44;-0.473;-8.8;7.2;28.3;55.9;7722;2018-04-16 23:03:45:149
-2.343;-9.279;-1.073;-2.321;-9.528;-0.01;0.052;0.268;-1.276;0.985;1.147;-0.395;-8.7;7.8;28.0;55.9;7732;2018-04-16 23:03:45:159
-2.306;-9.228;-1.271;-2.321;-9.528;-0.01;0.052;0.268;-1.276;0.867;0.616;-0.347;-8.7;7.8;28.0;55.9;7742;2018-04-16 23:03:45:169
-2.306;-9.228;-1.271;-2.321;-9.528;-0.01;0.052;0.268;-1.276;0.849;0.225;-0.314;-8.4;8.3;27.9;55.9;7752;2018-04-16 23:03:45:179
-2.471;-9.433;-0.961;-2.261;-9.542;0.125;-0.21;0.108;-1.087;0.836;-0.057;-0.265;-8.4;8.3;27.9;55.9;7762;2018-04-16 23:03:45:189
-2.632;-9.5;-0.393;-2.261;-9.542;0.125;-0.21;0.108;-1.087;0.81;-0.189;-0.211;-8.4;8.9;27.9;52.4;7772;2018-04-16 23:03:45:199
-2.632;-9.5;-0.393;-2.22;-9.548;0.28;-0.484;0.057;-0.522;0.81;-0.189;-0.211;-8.4;8.9;27.9;52.4;7782;2018-04-16 23:03:45:209
-2.672;-9.321;-0.061;-2.22;-9.548;0.28;-0.484;0.057;-0.522;0.753;-0.14;-0.12;-8.4;9.2;28.0;52.4;7792;2018-04-16 23:03:45:219
-2.437;-8.948;-0.016;-2.206;-9.546;0.419;-0.329;0.44;-0.415;0.705;-0.005;-0.071;-8.4;9.2;28.0;52.4;7802;2018-04-16 23:03:45:229
-2.437;-8.948;-0.016;-2.206;-9.546;0.419;-0.329;0.44;-0.415;0.574;0.227;-0.011;-8.0;9.6;27.9;52.4;7812;2018-04-16 23:03:45:239
-2.276;-8.806;-0.071;-2.209;-9.541;0.515;-0.067;0.735;-0.585;0.464;0.338;0.038;-8.0;9.6;27.9;52.4;7822;2018-04-16 23:03:45:249
-2.142;-8.739;-0.141;-2.209;-9.541;0.515;-0.067;0.735;-0.585;0.37;0.362;0.095;-8.0;9.9;27.9;52.4;7832;2018-04-16 23:03:45:259
-2.142;-8.739;-0.141;-2.231;-9.533;0.569;0.067;0.79;-0.696;0.34;0.274;0.139;-8.0;9.9;27.9;52.4;7842;2018-04-16 23:03:45:269
-2.349;-8.933;-0.001;-2.231;-9.533;0.569;0.067;0.79;-0.696;0.395;0.108;0.177;-7.7;10.1;27.8;52.4;7852;2018-04-16 23:03:45:279
-2.613;-9.43;0.302;-2.269;-9.519;0.638;-0.292;0.27;-0.493;0.538;-0.137;0.235;-7.7;10.1;27.8;52.4;7862;2018-04-16 23:03:45:289
-2.613;-9.43;0.302;-2.317;-9.499;0.751;-0.301;0.003;-0.259;0.594;-0.221;0.259;-7.5;10.3;27.8;52.4;7872;2018-04-16 23:03:45:299
-2.614;-9.525;0.597;-2.317;-9.499;0.751;-0.301;0.003;-0.259;0.594;-0.221;0.259;-7.5;10.3;27.8;52.4;7882;2018-04-16 23:03:45:309
-2.546;-9.479;0.668;-2.371;-9.475;0.876;-0.175;-0.004;-0.208;0.619;-0.194;0.292;-7.4;10.7;27.6;52.4;7894;2018-04-16 23:03:45:321
-2.546;-9.479;0.668;-2.371;-9.475;0.876;-0.175;-0.004;-0.208;0.659;-0.138;0.305;-7.4;10.7;27.6;52.4;7902;2018-04-16 23:03:45:329
-2.283;-9.328;0.499;-2.371;-9.475;0.876;-0.175;-0.004;-0.208;0.659;-0.138;0.305;-7.5;11.2;27.4;52.4;7912;2018-04-16 23:03:45:339
-1.737;-9.015;0.146;-2.431;-9.446;1.015;0.316;0.237;-0.645;0.762;-0.105;0.34;-7.5;11.2;27.4;52.4;7922;2018-04-16 23:03:45:349
-1.737;-9.015;0.146;-2.431;-9.446;1.015;0.316;0.237;-0.645;0.834;-0.13;0.352;-7.5;11.7;27.4;52.4;7931;2018-04-16 23:03:45:358
-1.387;-8.829;-0.05;-2.491;-9.412;1.174;1.103;0.583;-1.225;0.831;-0.18;0.324;-7.5;11.7;27.4;52.4;7942;2018-04-16 23:03:45:369
-1.014;-8.845;-0.215;-2.491;-9.412;1.174;1.103;0.583;-1.225;0.81;-0.253;0.292;-7.7;12.2;27.1;52.4;7952;2018-04-16 23:03:45:379
-0.502;-9.184;-0.357;-2.537;-9.378;1.337;1.664;0.486;-1.593;0.786;-0.354;0.26;-7.7;12.2;27.1;52.4;7962;2018-04-16 23:03:45:389
-0.502;-9.184;-0.357;-2.537;-9.378;1.337;1.664;0.486;-1.593;0.751;-0.487;0.2;-8.0;12.7;26.9;52.4;7972;2018-04-16 23:03:45:399
-0.201;-9.572;-0.354;-2.545;-9.353;1.486;2.344;-0.219;-1.84;0.695;-0.621;0.134;-8.0;12.7;26.9;52.4;7982;2018-04-16 23:03:45:409
0.113;-10.489;-0.104;-2.545;-9.353;1.486;2.344;-0.219;-1.84;0.646;-0.716;0.093;-8.2;13.1;26.8;52.4;7991;2018-04-16 23:03:45:418
0.172;-11.067;0.117;-2.532;-9.332;1.637;2.713;-1.463;-1.664;0.639;-0.766;0.075;-8.2;13.1;26.8;52.4;8002;2018-04-16 23:03:45:429
0.172;-11.067;0.117;-2.532;-9.332;1.637;2.713;-1.463;-1.664;0.687;-0.755;0.017;-8.4;13.5;26.6;52.4;8012;2018-04-16 23:03:45:439
-0.239;-11.15;0.3;-2.507;-9.308;1.802;2.267;-1.842;-1.502;0.722;-0.712;-0.045;-8.4;13.7;26.5;52.4;8022;2018-04-16 23:03:45:449
-0.239;-11.15;0.3;-2.507;-9.308;1.802;2.267;-1.842;-1.502;0.809;-0.264;-0.281;-8.4;13.7;26.5;52.4;8032;2018-04-16 23:03:45:459
-1.022;-11.101;0.121;-2.447;-9.29;1.97;1.425;-1.811;-1.849;0.801;0.009;-0.335;-8.5;14.1;26.4;52.4;8042;2018-04-16 23:03:45:469
-1.031;-11.127;-0.448;-2.447;-9.29;1.97;1.425;-1.811;-1.849;0.801;0.009;-0.335;-8.5;14.1;26.4;52.4;8052;2018-04-16 23:03:45:479
-0.785;-11.453;-1.258;-2.387;-9.275;2.109;1.438;-1.905;-2.779;0.779;0.236;-0.367;-8.5;14.5;26.3;52.4;8062;2018-04-16 23:03:45:489
-0.785;-11.453;-1.258;-2.387;-9.275;2.109;1.438;-1.905;-2.779;0.779;0.236;-0.367;-8.5;14.5;26.3;52.4;8072;2018-04-16 23:03:45:499
-0.66;-11.894;-1.988;-2.335;-9.269;2.192;1.676;-2.626;-4.181;0.522;0.652;-0.424;-8.5;14.9;26.1;52.4;8082;2018-04-16 23:03:45:509
-0.729;-12.374;-2.899;-2.335;-9.269;2.192;1.676;-2.626;-4.181;0.083;0.731;-0.454;-8.5;14.9;26.1;52.54;8092;2018-04-16 23:03:45:519
-0.769;-12.985;-2.859;-2.282;-9.287;2.169;1.502;-3.236;-5.143;-0.283;0.667;-0.459;-8.5;15.4;26.1;52.54;8102;2018-04-16 23:03:45:529
-0.769;-12.985;-2.859;-2.282;-9.287;2.169;1.502;-3.236;-5.143;-0.685;0.516;-0.45;-8.5;15.4;26.1;52.54;8112;2018-04-16 23:03:45:539
-0.39;-13.045;-2.358;-2.218;-9.337;2.016;1.828;-3.707;-4.374;-1.082;0.242;-0.47;-8.6;15.7;26.0;52.54;8122;2018-04-16 23:03:45:549
-0.548;-12.434;-0.959;-2.122;-9.414;1.746;1.318;-2.583;-2.184;-1.464;-0.11;-0.485;-8.6;15.7;26.0;52.54;8133;2018-04-16 23:03:45:560
-0.548;-12.434;-0.959;-2.122;-9.414;1.746;1.318;-2.583;-2.184;-1.464;-0.11;-0.485;-8.7;16.0;25.8;52.54;8141;2018-04-16 23:03:45:568
-1.5;-11.073;0.242;-2.122;-9.414;1.746;1.318;-2.583;-2.184;-1.818;-0.597;-0.487;-8.7;16.0;25.8;52.54;8152;2018-04-16 23:03:45:579
-2.683;-9.972;0.354;-2.005;-9.495;1.416;-0.195;-0.844;-0.877;-1.927;-0.787;-0.506;-8.8;16.2;25.7;52.54;8162;2018-04-16 23:03:45:589
-3.953;-9.703;-0.619;-1.889;-9.565;1.051;-2.063;-0.137;-1.67;-2.057;-0.834;-0.539;-8.8;16.2;25.7;52.54;8172;2018-04-16 23:03:45:599
-3.953;-9.703;-0.619;-1.889;-9.565;1.051;-2.063;-0.137;-1.67;-2.226;-0.793;-0.517;-8.9;16.4;25.8;52.54;8182;2018-04-16 23:03:45:609
-4.815;-9.992;-0.493;-1.889;-9.565;1.051;-2.063;-0.137;-1.67;-2.472;-0.716;-0.425;-8.9;16.4;25.8;52.54;8192;2018-04-16 23:03:45:619
-4.815;-9.992;-0.493;-1.797;-9.622;0.6;-2.963;-0.617;-0.345;-2.746;-0.563;-0.343;-9.0;16.5;25.8;52.54;8202;2018-04-16 23:03:45:629
-4.458;-10.827;2.266;-1.732;-9.652;0.038;-2.776;-1.767;4.037;-2.955;-0.224;-0.323;-9.0;16.5;25.8;52.54;8212;2018-04-16 23:03:45:639
-4.549;-11.675;4.836;-1.732;-9.652;0.038;-2.776;-1.767;4.037;-3.052;0.34;-0.34;-9.0;16.5;26.0;52.54;8222;2018-04-16 23:03:45:649
-4.549;-11.675;4.836;-1.732;-9.652;0.038;-2.776;-1.767;4.037;-3.026;1.047;-0.368;-9.0;16.5;26.0;52.54;8232;2018-04-16 23:03:45:659
-5.133;-11.875;5.758;-1.653;-9.649;-0.58;-3.48;-2.226;6.338;-2.673;2.01;-0.397;-9.2;16.2;26.1;52.54;8242;2018-04-16 23:03:45:669
-7.505;-12.68;6.029;-1.653;-9.649;-0.58;-3.48;-2.226;6.338;-2.673;2.01;-0.397;-9.2;16.2;26.1;52.54;8252;2018-04-16 23:03:45:679
-6.294;-11.334;3.28;-1.56;-9.618;-1.111;-5.771;-2.886;6.585;-2.166;2.402;-0.194;-9.4;15.7;26.5;52.54;8262;2018-04-16 23:03:45:689
-6.294;-11.334;3.28;-1.56;-9.618;-1.111;-5.771;-2.886;6.585;-1.692;2.888;-0.11;-9.4;15.7;26.5;52.54;8271;2018-04-16 23:03:45:698
-6.638;-11.456;0.989;-1.463;-9.577;-1.52;-5.175;-1.879;2.509;-1.354;2.551;-0.119;-10.8;13.7;27.8;52.54;8282;2018-04-16 23:03:45:709
-5.456;-10.658;-2.301;-1.463;-9.577;-1.52;-5.175;-1.879;2.509;-1.354;2.551;-0.119;-10.8;13.7;27.8;52.54;8292;2018-04-16 23:03:45:719
-4.937;-8.961;-2.03;-1.385;-9.537;-1.815;-3.898;-0.718;-0.649;-1.02;0.772;0.078;-12.4;11.5;29.0;52.54;8302;2018-04-16 23:03:45:729
-4.937;-8.961;-2.03;-1.385;-9.537;-1.815;-3.898;-0.718;-0.649;-1.02;0.772;0.078;-12.4;11.5;29.0;52.54;8312;2018-04-16 23:03:45:739
-4.168;-7.669;-0.341;-1.406;-9.495;-2.011;-2.988;1.412;0.767;-0.974;0.065;0.126;-13.4;10.5;28.1;52.54;8322;2018-04-16 23:03:45:749
-4.168;-7.669;-0.341;-1.406;-9.495;-2.011;-2.988;1.412;0.767;-0.896;-0.462;0.171;-13.4;10.5;28.1;52.54;8332;2018-04-16 23:03:45:759
-3.348;-7.276;1.059;-1.453;-9.451;-2.175;-1.895;2.175;3.235;-0.787;-0.32;0.186;-13.8;9.4;28.5;52.54;8342;2018-04-16 23:03:45:769
-1.604;-7.301;1.608;-1.453;-9.451;-2.175;-1.895;2.175;3.235;-0.672;0.064;0.127;-13.8;9.4;28.5;52.54;8352;2018-04-16 23:03:45:779
-1.29;-8.406;0.797;-1.467;-9.418;-2.307;0.185;1.786;3.671;-0.589;0.712;-0.007;-13.9;8.4;28.9;52.54;8362;2018-04-16 23:03:45:789
-1.29;-8.406;0.797;-1.467;-9.418;-2.307;0.185;1.786;3.671;-0.589;0.712;-0.007;-13.9;8.4;28.9;52.54;8372;2018-04-16 23:03:45:799
-0.801;-8.509;0.4;-1.39;-9.393;-2.45;0.589;0.884;2.85;-0.547;1.734;-0.056;-14.2;8.1;28.8;52.54;8382;2018-04-16 23:03:45:809
-1.069;-8.4;0.609;-1.39;-9.393;-2.45;0.589;0.884;2.85;-0.346;2.236;-0.192;-14.2;8.1;28.8;52.54;8392;2018-04-16 23:03:45:819
-1.069;-8.4;0.609;-1.244;-9.382;-2.569;0.087;1.121;3.05;-0.219;2.293;-0.213;-15.4;6.3;28.6;52.54;8402;2018-04-16 23:03:45:829
-1.058;-7.799;0.244;-1.244;-9.382;-2.569;0.087;1.121;3.05;-0.219;2.293;-0.213;-15.4;6.3;28.6;52.74;8412;2018-04-16 23:03:45:839
-1.838;-7.733;0.625;-1.087;-9.397;-2.584;-0.75;1.664;3.209;0.272;1.807;-0.334;-15.6;7.9;28.7;52.74;8422;2018-04-16 23:03:45:849
-2.32;-7.518;0.038;-1.087;-9.397;-2.584;-0.75;1.664;3.209;0.389;1.466;-0.303;-15.6;7.9;28.7;52.74;8432;2018-04-16 23:03:45:859
-2.768;-7.709;-0.04;-0.956;-9.423;-2.542;-1.476;1.894;2.579;0.323;1.08;-0.293;-16.3;7.1;28.8;52.74;8442;2018-04-16 23:03:45:869
-2.768;-7.581;-1.044;-0.956;-9.423;-2.492;-2.696;1.862;1.449;0.324;0.454;-0.276;-16.3;7.1;28.8;52.74;8452;2018-04-16 23:03:45:879
-3.582;-7.581;-1.044;-0.885;-9.443;-2.492;-2.696;1.862;1.449;0.206;-0.042;-0.147;-16.8;7.5;29.0;52.74;8463;2018-04-16 23:03:45:890
-4.068;-6.752;-0.995;-0.885;-9.443;-2.492;-2.696;1.862;1.449;0.206;-0.042;-0.147;-16.8;7.5;29.0;52.74;8472;2018-04-16 23:03:45:899
-4.068;-6.752;-0.995;-0.918;-9.437;-2.503;-2.962;2.92;1.759;-0.211;-0.379;0.189;-17.6;6.8;28.0;52.74;8482;2018-04-16 23:03:45:909
-3.541;-6.401;-0.378;-0.918;-9.437;-2.503;-2.962;2.92;1.759;-0.505;-0.182;0.385;-17.6;6.8;28.0;52.74;8492;2018-04-16 23:03:45:919
-3.349;-6.791;-0.571;-0.999;-9.405;-2.593;-2.351;2.614;2.022;-0.599;0.02;0.43;-16.9;7.2;28.2;52.74;8502;2018-04-16 23:03:45:929
-2.502;-7.506;-1.572;-0.999;-9.405;-2.593;-2.351;2.614;2.022;-0.64;0.056;0.47;-16.9;7.2;28.2;52.74;8512;2018-04-16 23:03:45:939
-1.407;-7.638;-1.998;-1.085;-9.361;-2.712;-1.092;1.818;0.984;-0.564;-0.165;0.473;-16.9;6.7;28.9;52.74;8522;2018-04-16 23:03:45:949
-1.407;-7.638;-1.998;-1.085;-9.361;-2.712;-1.092;1.818;0.984;-0.564;-0.165;0.473;-16.9;6.7;28.9;52.74;8532;2018-04-16 23:03:45:959
-0.833;-7.688;-1.92;-1.186;-9.324;-2.796;0.353;1.637;0.876;-0.421;-0.409;0.432;-16.7;6.7;29.0;52.74;8542;2018-04-16 23:03:45:969
-0.305;-7.533;-1.994;-1.186;-9.324;-2.796;0.353;1.637;0.876;-0.123;-0.727;0.402;-16.8;6.7;29.0;52.74;8552;2018-04-16 23:03:45:979
-0.305;-7.533;-1.994;-1.304;-9.307;-2.8;1.002;1.779;0.656;-0.123;-0.727;0.402;-16.8;6.7;29.0;52.74;8562;2018-04-16 23:03:45:989
0.074;-7.608;-2.32;-1.304;-9.307;-2.8;1.002;1.779;0.656;0.105;-0.969;0.461;-17.2;6.4;28.9;52.74;8572;2018-04-16 23:03:45:999
0.901;-8.295;-3.162;-1.452;-9.302;-2.745;1.89;1.587;0.293;0.205;-1.247;0.527;-17.2;6.4;28.9;52.74;8582;2018-04-16 23:03:46:009
0.901;-8.295;-3.162;-1.605;-9.296;-2.678;2.71;0.486;-1.044;0.178;-1.405;0.519;-17.5;6.1;28.9;52.74;8592;2018-04-16 23:03:46:019
1.209;-9.152;-4.067;-1.605;-9.296;-2.678;2.71;0.486;-1.044;0.123;-1.569;0.497;-17.5;6.1;28.9;52.74;8602;2018-04-16 23:03:46:029
1.383;-10.301;-4.368;-1.776;-9.286;-2.606;3.158;-1.015;-1.763;0.087;-1.762;0.443;-17.6;6.0;28.8;52.74;8612;2018-04-16 23:03:46:039
1.383;-10.301;-4.368;-1.776;-9.286;-2.606;3.158;-1.015;-1.763;0.087;-1.762;0.443;-17.6;6.0;28.8;52.74;8621;2018-04-16 23:03:46:048
1.268;-11.101;-4.342;-1.776;-9.286;-2.606;3.158;-1.015;-1.763;0.112;-1.99;0.257;-17.7;6.0;28.9;52.74;8631;2018-04-16 23:03:46:058
0.407;-11.173;-4.918;-1.922;-9.283;-2.51;2.924;-1.943;-1.902;0.154;-1.875;0.097;-17.7;6.0;28.9;52.74;8642;2018-04-16 23:03:46:069
0.407;-11.173;-4.918;-1.989;-9.291;-2.428;2.173;-1.567;-3.072;0.137;-1.593;-0.038;-17.7;6.0;28.9;52.74;8652;2018-04-16 23:03:46:079
0.072;-10.734;-5.948;-1.989;-9.291;-2.428;2.173;-1.567;-3.072;0.022;-1.148;-0.172;-17.7;6.0;28.9;52.74;8662;2018-04-16 23:03:46:089
0.184;-10.688;-7.131;-1.959;-9.296;-2.434;2.143;-1.392;-4.697;-0.143;-0.584;-0.304;-17.7;6.0;29.0;52.74;8672;2018-04-16 23:03:46:099
0.184;-10.688;-7.131;-1.959;-9.296;-2.434;2.143;-1.392;-4.697;-0.27;0.028;-0.426;-17.7;6.0;29.0;52.74;8681;2018-04-16 23:03:46:108
0.68;-10.83;-7.618;-1.959;-9.296;-2.434;2.143;-1.392;-4.697;-0.233;0.538;-0.555;-17.6;6.1;29.1;52.74;8692;2018-04-16 23:03:46:119
0.305;-10.83;-6.698;-1.827;-9.307;-2.492;2.47;-1.614;-4.973;0.018;0.814;-0.683;-17.6;6.1;29.1;52.74;8702;2018-04-16 23:03:46:129
0.305;-10.83;-6.698;-1.827;-9.307;-2.492;2.47;-1.614;-4.973;0.018;0.814;-0.683;-17.4;6.3;29.3;52.74;8712;2018-04-16 23:03:46:139
-0.221;-10.515;-6.961;-1.646;-9.355;-2.437;1.425;-1.16;-4.524;0.638;0.753;-0.782;-17.4;6.3;29.3;52.74;8722;2018-04-16 23:03:46:149
-3.124;-10.713;-4.83;-1.646;-9.355;-2.437;1.425;-1.16;-4.524;1.031;-0.285;-0.749;-17.3;6.3;29.4;52.74;8732;2018-04-16 23:03:46:159
-5.203;-10.332;-3.596;-1.525;-9.425;-2.238;-2.293;-1.27;-2.251;1.081;-0.98;-0.533;-17.3;6.3;29.4;52.74;8742;2018-04-16 23:03:46:169
-5.203;-10.332;-3.596;-1.525;-9.425;-2.238;-2.293;-1.27;-2.251;0.867;-1.615;-0.305;-17.0;6.4;29.6;53.66;8752;2018-04-16 23:03:46:179
-6.874;-10.421;-2.109;-1.534;-9.47;-2.033;-5.08;-0.691;-0.87;0.093;-1.781;-0.114;-17.0;6.4;29.6;53.66;8762;2018-04-16 23:03:46:189
-5.904;-11.514;-0.442;-1.534;-9.47;-2.033;-5.08;-0.691;-0.87;0.093;-1.781;-0.114;-16.7;6.5;29.8;53.66;8772;2018-04-16 23:03:46:199
-5.904;-13.83;-0.111;-1.58;-9.467;-2.013;-3.193;-2.813;2.374;-0.368;-1.493;-0.09;-16.7;6.5;29.8;53.66;8782;2018-04-16 23:03:46:209
-1.912;-13.83;-0.111;-1.548;-9.458;-2.076;1.505;-5.927;-0.07;-0.457;-0.886;-0.314;-16.4;6.6;30.1;53.66;8792;2018-04-16 23:03:46:219
-0.692;-15.353;-1.517;-1.548;-9.458;-2.076;1.505;-5.927;-0.07;-0.511;-0.043;-0.602;-16.4;6.6;30.1;53.66;8802;2018-04-16 23:03:46:229
-0.692;-15.353;-1.517;-1.481;-9.457;-2.131;0.293;-4.956;1.247;-0.544;0.999;-0.604;-16.0;6.7;30.5;53.66;8812;2018-04-16 23:03:46:239
-1.683;-9.117;1.141;-1.399;-9.455;-2.192;-0.284;0.338;3.333;-0.506;1.326;-0.49;-15.8;6.8;30.6;53.66;8822;2018-04-16 23:03:46:249
-1.683;-9.117;1.141;-1.399;-9.455;-2.192;-0.284;0.338;3.333;-0.506;1.326;-0.49;-15.8;6.8;30.6;53.66;8832;2018-04-16 23:03:46:259
-2.735;-2.54;4.057;-1.245;-9.453;-2.295;-1.49;6.912;6.352;-0.241;1.789;-0.441;-15.3;6.9;30.8;53.66;8842;2018-04-16 23:03:46:269
-2.735;-2.54;4.057;-1.245;-9.453;-2.295;-1.49;6.912;6.352;0.239;2.016;-0.709;-15.3;6.9;30.8;53.66;8852;2018-04-16 23:03:46:279
-5.119;-4.894;2.195;-1.03;-9.473;-2.316;-4.089;4.58;4.511;0.239;2.016;-0.709;-15.1;6.9;31.0;53.66;8862;2018-04-16 23:03:46:289
-7.342;-6.958;-3.08;-1.03;-9.473;-2.316;-4.089;4.58;4.511;0.803;1.603;-0.252;-15.1;6.9;31.0;53.66;8872;2018-04-16 23:03:46:299
-7.87;-9.657;-0.601;-0.881;-9.511;-2.22;-6.921;1.772;-0.765;1.112;0.651;0.203;-15.0;7.1;31.1;53.66;8882;2018-04-16 23:03:46:309
-7.87;-9.657;-0.601;-0.881;-9.511;-2.22;-6.921;1.772;-0.765;1.243;0.231;0.673;-15.0;7.1;31.1;53.66;8892;2018-04-16 23:03:46:319
-5.98;-10.602;0.719;-0.968;-9.551;-2.002;-5.557;-1.001;2.681;1.129;0.246;0.913;-15.0;7.2;31.3;53.66;8902;2018-04-16 23:03:46:329
-5.98;-10.602;0.719;-0.968;-9.551;-2.002;-5.557;-1.001;2.681;0.861;0.423;0.938;-15.0;7.2;31.3;53.66;8912;2018-04-16 23:03:46:339
-4.876;-10.318;0.47;-1.129;-9.564;-1.85;-3.747;-0.754;2.32;0.539;0.615;0.888;-15.0;7.4;31.4;53.66;8922;2018-04-16 23:03:46:349
-4.429;-9.784;0.054;-1.129;-9.564;-1.85;-3.747;-0.754;2.32;0.539;0.615;0.888;-15.0;7.4;31.4;53.66;8932;2018-04-16 23:03:46:359
-3.824;-9.145;-0.284;-1.276;-9.551;-1.82;-3.032;-0.091;1.8;0.108;0.754;0.907;-15.1;7.5;31.3;53.66;8942;2018-04-16 23:03:46:369
-3.824;-9.145;-0.284;-1.276;-9.551;-1.82;-3.032;-0.091;1.8;-0.211;0.601;1.018;-15.1;7.5;31.3;53.66;8952;2018-04-16 23:03:46:379
-3.417;-8.839;-0.546;-1.47;-9.515;-1.863;-1.947;0.676;1.317;-0.362;0.349;1.069;-15.2;7.7;31.3;53.66;8961;2018-04-16 23:03:46:388
-2.806;-9.035;-1.028;-1.47;-9.515;-1.863;-1.947;0.676;1.317;-0.429;-0.081;1.103;-15.2;7.7;31.3;53.66;8972;2018-04-16 23:03:46:399
-2.806;-9.035;-1.028;-1.693;-9.466;-1.925;-0.89;0.202;0.749;-0.304;-0.848;1.137;-15.5;7.9;31.2;53.66;8982;2018-04-16 23:03:46:409
-2.011;-9.488;-0.777;-1.693;-9.466;-1.925;-0.89;0.202;0.749;-0.304;-0.848;1.137;-15.5;7.9;31.2;53.66;8992;2018-04-16 23:03:46:419
-1.869;-10.178;0.043;-1.955;-9.428;-1.859;0.083;-0.425;1.735;0.064;-2.06;0.987;-15.7;8.1;31.2;53.66;9002;2018-04-16 23:03:46:429
-1.869;-10.178;0.043;-1.955;-9.428;-1.859;0.083;-0.425;1.735;0.26;-2.696;0.693;-15.7;8.1;31.2;53.66;9012;2018-04-16 23:03:46:439
-1.768;-10.919;0.104;-2.182;-9.41;-1.692;0.413;-1.509;1.797;0.26;-2.696;0.693;-15.8;8.4;31.1;53.66;9021;2018-04-16 23:03:46:448
-1.768;-11.098;0.967;-2.395;-9.408;-1.388;1.878;-1.691;2.356;0.558;-3.202;0.56;-15.8;8.4;31.1;53.66;9032;2018-04-16 23:03:46:459
-0.517;-11.098;0.967;-2.395;-9.408;-1.388;1.878;-1.691;2.356;1.216;-3.465;0.621;-15.6;8.6;31.1;53.66;9042;2018-04-16 23:03:46:469
0.237;-10.379;1.451;-2.395;-9.408;-1.388;1.878;-1.691;2.356;1.534;-3.024;0.566;-15.6;8.6;31.1;53.66;9052;2018-04-16 23:03:46:479
0.237;-10.379;1.451;-2.557;-9.419;-0.955;2.945;-0.711;2.309;1.534;-3.024;0.566;-15.4;8.9;31.0;53.66;9063;2018-04-16 23:03:46:490
0.578;-9.725;1.026;-2.578;-9.429;-0.784;3.157;-0.296;1.81;1.495;-1.565;0.287;-15.3;9.1;31.0;57.97;9072;2018-04-16 23:03:46:499
0.084;-9.216;0.393;-2.542;-9.454;-0.579;2.625;0.237;0.972;0.865;0.443;-0.217;-15.3;9.1;31.0;57.97;9082;2018-04-16 23:03:46:509
0.084;-9.216;0.393;-2.542;-9.454;-0.579;2.625;0.237;0.972;0.865;0.443;-0.217;-14.1;9.9;31.1;57.97;9092;2018-04-16 23:03:46:519
-0.043;-8.653;-0.302;-2.475;-9.474;-0.531;2.432;0.822;0.229;0.611;0.988;-0.282;-14.1;9.9;31.1;57.97;9102;2018-04-16 23:03:46:529
-0.043;-8.653;-0.302;-2.475;-9.474;-0.531;2.432;0.822;0.229;0.425;1.223;-0.264;-13.7;10.9;30.7;57.97;9112;2018-04-16 23:03:46:539
-0.393;-8.751;-0.727;-2.443;-9.483;-0.521;1.831;0.775;-0.453;0.385;1.035;-0.213;-13.7;10.9;30.7;57.97;9122;2018-04-16 23:03:46:549
-0.791;-8.775;-1.059;-2.443;-9.483;-0.521;1.831;0.775;-0.453;0.373;0.621;-0.199;-13.7;11.2;30.9;57.97;9132;2018-04-16 23:03:46:559
-1.38;-9.215;-1.027;-2.396;-9.497;-0.48;0.996;0.289;-0.581;0.371;-0.195;-0.204;-13.7;11.2;30.9;57.97;9142;2018-04-16 23:03:46:569
-1.38;-9.215;-1.027;-2.396;-9.497;-0.48;0.996;0.289;-0.581;0.368;-0.742;-0.137;-13.5;11.8;30.7;57.97;9152;2018-04-16 23:03:46:579
-1.53;-9.157;-0.837;-2.363;-9.51;-0.39;0.833;0.353;-0.447;0.368;-0.742;-0.137;-13.7;12.2;30.7;57.97;9162;2018-04-16 23:03:46:589
-1.53;-9.157;-0.837;-2.363;-9.51;-0.39;0.833;0.353;-0.447;0.332;-1.502;-0.12;-13.7;12.2;30.7;57.97;9172;2018-04-16 23:03:46:599
-2.442;-9.373;0.253;-2.348;-9.518;-0.259;-0.094;0.144;0.512;0.356;-1.576;-0.123;-12.9;12.5;31.7;57.97;9183;2018-04-16 23:03:46:610
-2.851;-9.394;0.826;-2.348;-9.518;-0.259;-0.526;0.184;1.042;0.474;-1.376;-0.117;-12.9;12.5;31.7;57.97;9192;2018-04-16 23:03:46:619
-2.91;-9.272;1.143;-2.335;-9.524;-0.098;-0.526;0.184;1.042;0.474;-1.376;-0.117;-12.3;13.2;30.7;57.97;9201;2018-04-16 23:03:46:628
-2.91;-9.272;1.143;-2.335;-9.524;-0.098;-0.526;0.184;1.042;0.586;-0.887;-0.143;-12.3;13.2;30.7;57.97;9212;2018-04-16 23:03:46:639
-2.86;-9.105;1.135;-2.313;-9.53;0.064;-0.547;0.425;1.071;0.584;-0.463;-0.127;-11.9;13.1;31.1;57.97;9222;2018-04-16 23:03:46:649
-2.444;-8.517;0.855;-2.313;-9.53;0.064;-0.547;0.425;1.071;0.584;-0.463;-0.127;-11.9;13.1;31.1;57.97;9232;2018-04-16 23:03:46:659
-2.288;-8.095;0.607;-2.292;-9.534;0.164;-0.071;1.172;0.603;0.454;0.14;-0.109;-11.8;13.3;31.0;57.97;9242;2018-04-16 23:03:46:669
-2.288;-8.095;0.607;-2.275;-9.537;0.204;-0.078;1.482;0.309;0.326;0.516;-0.104;-11.8;13.3;31.0;57.97;9252;2018-04-16 23:03:46:679
-2.413;-8.122;0.496;-2.275;-9.537;0.204;-0.078;1.482;0.309;0.334;0.61;-0.103;-11.6;13.5;31.2;57.97;9262;2018-04-16 23:03:46:689
-2.413;-8.122;0.496;-2.275;-9.537;0.204;-0.078;1.482;0.309;0.446;0.578;-0.108;-11.6;13.5;31.2;57.97;9272;2018-04-16 23:03:46:699
-2.763;-8.628;0.528;-2.258;-9.539;0.268;-0.504;0.912;0.26;0.639;0.474;-0.097;-11.6;13.4;31.2;57.97;9282;2018-04-16 23:03:46:709
-2.915;-9.346;0.451;-2.258;-9.539;0.268;-0.504;0.912;0.26;0.83;0.359;-0.061;-11.6;13.4;31.2;57.97;9292;2018-04-16 23:03:46:719
-2.915;-9.346;0.451;-2.256;-9.535;0.411;-0.633;0.099;0.008;0.943;0.29;-0.015;-11.2;13.8;31.3;57.97;9302;2018-04-16 23:03:46:729
-2.801;-9.62;0.34;-2.256;-9.535;0.411;-0.633;0.099;0.008;0.943;0.29;-0.015;-11.2;13.8;31.3;57.97;9311;2018-04-16 23:03:46:738
-2.692;-9.67;0.34;-2.267;-9.523;0.582;-0.425;-0.147;-0.242;0.971;0.277;0.044;-10.8;14.2;31.4;57.97;9322;2018-04-16 23:03:46:749
-2.684;-9.865;0.511;-2.267;-9.523;0.582;-0.425;-0.147;-0.242;0.981;0.307;0.068;-10.8;14.2;31.4;57.97;9332;2018-04-16 23:03:46:759
-2.306;-10.032;0.385;-2.287;-9.506;0.756;-0.329;-0.438;-0.25;1.062;0.296;0.094;-10.7;14.5;31.4;57.97;9342;2018-04-16 23:03:46:769
-2.306;-10.032;0.385;-2.311;-9.481;0.972;0.253;-0.62;-0.856;1.261;0.177;0.115;-10.7;14.5;31.4;57.97;9352;2018-04-16 23:03:46:779
-1.897;-10.035;-0.11;-2.311;-9.481;0.972;0.253;-0.62;-0.856;1.322;0.115;0.116;-10.6;15.0;31.4;57.97;9362;2018-04-16 23:03:46:789
-1.897;-10.035;-0.11;-2.311;-9.481;0.972;0.253;-0.62;-0.856;1.418;-0.062;0.104;-10.6;15.0;31.4;57.97;9372;2018-04-16 23:03:46:799
-1.571;-9.833;-0.585;-2.324;-9.448;1.229;0.754;-0.385;-1.814;1.473;-0.28;0.075;-10.7;15.4;31.2;57.97;9382;2018-04-16 23:03:46:809
-1.416;-9.776;-0.776;-2.324;-9.448;1.229;0.754;-0.385;-1.814;1.473;-0.28;0.075;-10.7;15.4;31.2;57.75;9392;2018-04-16 23:03:46:819
-1.33;-9.622;-0.753;-2.314;-9.41;1.506;0.944;-0.252;-2.279;1.45;-0.574;0.033;-10.8;15.8;31.0;57.75;9402;2018-04-16 23:03:46:829
