sep=;
acc_x;acc_y;acc_z;grav_x;grav_y;grav_z;lin_acc_x;lin_acc_y;lin_acc_z;gyro_x;gyro_y;gyro_z;mag_x;mag_y;mag_z;sound_lvl;time_ms;date_time
-2.571;1.913;10.071;-2.589;2.653;9.079;0.886;-0.177;0.485;0.516;0.309;0.891;10.2;-38.7;9.2;49.71;22;2018-04-16 22:26:06:287
-3.365;3.481;7.447;-2.593;2.731;9.055;-0.772;0.75;-1.607;0.516;0.309;0.891;10.2;-38.7;9.2;49.71;31;2018-04-16 22:26:06:296
-2.09;4.421;5.808;-2.593;2.731;9.055;-0.772;0.75;-1.607;0.39;0.045;0.728;10.4;-38.5;9.6;49.71;42;2018-04-16 22:26:06:307
-2.09;4.421;5.808;-2.56;2.837;9.032;0.353;1.481;-3.123;0.39;0.045;0.728;10.4;-38.5;9.6;49.71;52;2018-04-16 22:26:06:317
-1.958;4.005;6.941;-2.56;2.837;9.032;0.353;1.481;-3.123;0.208;-0.214;0.505;10.5;-38.4;9.7;49.71;62;2018-04-16 22:26:06:327
-1.34;3.772;8.179;-2.45;2.874;9.05;1.111;0.898;-0.872;0.066;-0.467;0.37;10.6;-38.3;9.6;49.71;72;2018-04-16 22:26:06:337
-1.34;3.772;8.179;-2.45;2.874;9.05;1.111;0.898;-0.872;0.066;-0.467;0.37;10.6;-38.3;9.6;49.71;82;2018-04-16 22:26:06:347
-2.161;3.549;8.841;-2.377;2.892;9.064;0.216;0.657;-0.223;0.133;-0.826;0.162;10.7;-38.2;9.6;49.71;92;2018-04-16 22:26:06:357
-2.161;3.549;8.841;-2.377;2.892;9.064;0.216;0.657;-0.223;0.133;-0.826;0.162;10.7;-38.2;9.6;49.49;102;2018-04-16 22:26:06:367
-1.802;3.091;9.188;-2.194;2.932;9.097;0.392;0.159;0.09;0.182;-0.99;0.045;10.7;-38.2;9.7;49.49;114;2018-04-16 22:26:06:379
-1.535;2.866;9.11;-1.99;2.964;9.134;0.669;-0.01;-0.294;0.2;-1.156;0.015;10.7;-38.3;9.8;49.49;122;2018-04-16 22:26:06:387
-1.535;2.866;9.11;-1.99;2.964;9.134;0.669;-0.01;-0.294;0.2;-1.156;0.015;10.7;-38.3;9.8;49.49;132;2018-04-16 22:26:06:397
-0.757;3.32;8.053;-1.836;2.997;9.155;1.08;0.322;-1.102;0.316;-1.515;0.042;10.8;-38.2;9.8;49.49;142;2018-04-16 22:26:06:407
0.912;4.387;6.367;-1.491;3.051;9.2;2.403;1.337;-2.833;0.274;-2.007;-0.114;10.8;-38.2;9.8;49.49;152;2018-04-16 22:26:06:417
0.912;4.387;6.367;-1.491;3.051;9.2;2.403;1.337;-2.833;0.274;-2.007;-0.114;10.8;-38.1;9.9;49.49;162;2018-04-16 22:26:06:427
0.722;4.435;7.149;-1.092;3.037;9.26;1.796;1.154;-1.375;-0.016;-2.302;-0.403;10.9;-38.1;10.0;49.49;172;2018-04-16 22:26:06:437
0.722;4.435;7.149;-1.092;3.037;9.26;1.796;1.154;-1.375;-0.016;-2.302;-0.403;10.9;-38.1;10.0;49.49;184;2018-04-16 22:26:06:449
0.924;3.266;9.711;-0.951;2.992;9.291;1.875;0.274;0.42;-0.483;-1.811;-0.529;11.0;-38.0;10.1;49.49;192;2018-04-16 22:26:06:457
0.924;3.266;9.711;-0.951;2.992;9.291;1.875;0.274;0.42;-0.483;-1.811;-0.529;11.0;-38.0;10.1;49.49;202;2018-04-16 22:26:06:467
-1.035;1.444;8.21;-0.758;2.829;9.359;-0.278;-1.386;-1.149;-0.842;-1.08;-0.487;11.2;-38.0;10.1;49.49;211;2018-04-16 22:26:06:476
1.219;0.712;7.672;-0.386;2.724;9.413;2.046;-1.93;-1.643;-0.571;-1.878;0.356;11.3;-38.0;10.1;49.49;222;2018-04-16 22:26:06:487
1.219;0.712;7.672;-0.386;2.724;9.413;2.046;-1.93;-1.643;-0.571;-1.878;0.356;11.3;-38.0;10.1;49.49;232;2018-04-16 22:26:06:497
1.788;1.343;8.039;-0.066;2.699;9.428;1.855;-1.356;-1.389;-0.244;-3.012;0.359;11.5;-38.0;9.9;49.49;241;2018-04-16 22:26:06:506
1.788;1.343;8.039;-0.066;2.699;9.428;1.855;-1.356;-1.389;-0.244;-3.012;0.359;11.5;-38.0;9.9;49.49;252;2018-04-16 22:26:06:517
1.788;1.343;8.039;-0.066;2.699;9.428;1.855;-1.356;-1.389;-0.244;-3.012;0.359;11.5;-38.0;9.9;49.49;262;2018-04-16 22:26:06:527
2.454;2.371;7.974;0.571;2.727;9.402;1.865;-0.274;-1.427;0.151;-3.329;0.213;11.5;-38.0;9.8;49.49;272;2018-04-16 22:26:06:537
2.454;2.371;7.974;0.571;2.727;9.402;1.865;-0.274;-1.427;0.151;-3.329;0.213;11.5;-38.0;9.8;49.49;282;2018-04-16 22:26:06:547
2.43;3.439;8.12;1.356;2.901;9.269;1.075;0.538;-1.149;0.693;-2.666;-0.384;11.9;-38.0;9.4;49.49;292;2018-04-16 22:26:06:557
2.666;3.13;7.885;1.698;3.008;9.178;0.968;0.122;-1.293;0.321;-1.894;-0.777;11.9;-38.0;9.4;49.49;302;2018-04-16 22:26:06:567
2.666;3.13;7.885;1.698;3.008;9.178;0.968;0.122;-1.293;0.321;-1.894;-0.777;12.2;-38.0;9.2;49.49;312;2018-04-16 22:26:06:577
2.583;1.986;7.314;1.961;3.053;9.111;0.48;-1.255;-2.032;0.057;-1.699;-0.855;12.3;-38.0;9.0;49.49;322;2018-04-16 22:26:06:587
2.583;1.986;7.314;1.961;3.053;9.111;0.48;-1.255;-2.032;0.057;-1.699;-0.855;12.3;-38.0;9.0;49.49;332;2018-04-16 22:26:06:597
1.803;1.52;6.244;2.099;3.067;9.075;-0.296;-1.546;-2.831;-0.026;-1.64;-0.74;12.7;-38.0;8.6;49.49;342;2018-04-16 22:26:06:607
1.052;1.903;5.137;2.378;3.096;8.996;-1.326;-1.193;-3.859;0.045;-1.773;-0.539;12.7;-38.0;8.6;49.49;352;2018-04-16 22:26:06:617
1.052;1.903;5.137;2.378;3.096;8.996;-1.326;-1.193;-3.859;0.122;-1.873;-0.462;13.6;-38.1;7.8;49.49;362;2018-04-16 22:26:06:627
1.179;2.277;5.69;2.693;3.15;8.888;-1.39;-0.764;-2.962;0.236;-1.951;-0.381;13.9;-37.9;7.2;49.49;372;2018-04-16 22:26:06:637
1.179;2.277;5.69;2.693;3.15;8.888;-1.39;-0.764;-2.962;0.236;-1.951;-0.381;13.9;-37.9;7.2;49.49;382;2018-04-16 22:26:06:647
1.375;2.648;6.674;2.842;3.189;8.827;-1.466;-0.541;-2.154;0.393;-1.965;-0.296;14.8;-37.7;6.7;49.49;391;2018-04-16 22:26:06:656
2.016;1.931;6.536;3.179;3.318;8.663;-1.163;-1.387;-2.127;0.778;-2.057;-0.158;14.8;-37.7;6.7;49.49;402;2018-04-16 22:26:06:667
2.016;1.931;6.536;3.179;3.318;8.663;-1.163;-1.387;-2.127;0.778;-2.057;-0.158;15.4;-37.6;5.8;49.49;412;2018-04-16 22:26:06:677
2.064;0.785;6.419;3.584;3.501;8.43;-1.521;-2.716;-2.011;1.091;-2.386;0.012;15.5;-37.5;5.1;49.74;422;2018-04-16 22:26:06:687
2.064;0.785;6.419;3.584;3.501;8.43;-1.521;-2.716;-2.011;1.091;-2.386;0.012;15.5;-37.5;5.1;49.74;431;2018-04-16 22:26:06:696
2.109;0.709;6.445;3.804;3.607;8.288;-1.695;-2.898;-1.843;1.25;-2.315;0.204;16.3;-37.3;5.8;49.74;441;2018-04-16 22:26:06:706
2.522;2.27;6.547;4.13;3.774;8.054;-1.608;-1.504;-1.507;1.192;-1.603;0.523;16.3;-37.3;5.8;49.74;452;2018-04-16 22:26:06:717
2.522;2.27;6.547;4.13;3.774;8.054;-1.608;-1.504;-1.507;1.192;-1.603;0.523;16.2;-37.5;5.4;49.74;461;2018-04-16 22:26:06:726
2.672;2.587;5.022;4.382;3.778;7.918;-1.35;-1.38;-3.291;0.597;-1.119;0.948;16.2;-37.5;5.4;49.74;471;2018-04-16 22:26:06:736
3.585;1.909;4.272;4.382;3.778;7.918;-1.35;-1.38;-3.291;-0.45;-0.859;1.291;16.2;-37.5;4.8;49.74;482;2018-04-16 22:26:06:747
3.955;1.286;4.407;4.595;3.53;7.912;-0.64;-2.245;-3.505;-1.086;-0.6;1.403;16.2;-37.5;4.8;49.74;491;2018-04-16 22:26:06:756
3.955;1.286;4.407;4.595;3.53;7.912;-0.64;-2.245;-3.505;-1.513;-0.376;1.475;16.4;-37.5;4.8;49.74;501;2018-04-16 22:26:06:766
4.262;0.242;5.41;4.755;3.128;7.986;-0.413;-3.046;-2.331;-1.513;-0.376;1.475;16.4;-37.5;4.8;49.74;511;2018-04-16 22:26:06:776
4.548;-0.04;6.047;4.755;3.128;7.986;-0.413;-3.046;-2.331;-1.715;-0.418;1.541;16.7;-37.5;4.4;49.74;521;2018-04-16 22:26:06:786
4.548;-0.04;6.047;4.755;3.128;7.986;-0.413;-3.046;-2.331;-1.715;-0.418;1.541;16.7;-37.5;4.4;49.74;531;2018-04-16 22:26:06:796
4.793;-0.646;6.755;4.969;2.728;8.002;-0.176;-3.374;-1.247;-1.484;-0.965;1.572;16.8;-37.5;4.0;49.74;542;2018-04-16 22:26:06:807
4.793;-0.646;6.755;4.969;2.728;8.002;-0.176;-3.374;-1.247;-1.484;-0.965;1.572;16.8;-37.5;4.0;49.74;551;2018-04-16 22:26:06:816
4.914;-0.239;8.115;5.329;2.366;7.885;-0.415;-2.606;0.23;-0.808;-1.829;1.902;16.9;-37.6;3.4;49.74;562;2018-04-16 22:26:06:827
6.044;-0.217;7.432;5.738;2.085;7.675;0.306;-2.301;-0.243;-0.064;-2.055;2.061;16.9;-37.6;3.4;49.74;572;2018-04-16 22:26:06:837
6.044;-0.217;7.432;5.738;2.085;7.675;0.306;-2.301;-0.243;-0.064;-2.055;2.061;16.9;-37.7;2.9;49.74;582;2018-04-16 22:26:06:847
6.548;-1.164;6.322;6.19;1.828;7.383;0.51;-3.173;-1.072;0.123;-2.379;2.114;16.8;-37.8;2.5;49.74;592;2018-04-16 22:26:06:857
7.215;-1.464;6.531;6.403;1.686;7.234;0.812;-3.15;-0.702;0.092;-2.604;2.371;16.8;-37.8;2.5;49.74;601;2018-04-16 22:26:06:866
7.215;-1.464;6.531;6.403;1.686;7.234;0.812;-3.15;-0.702;0.092;-2.604;2.371;16.8;-37.8;2.5;49.74;612;2018-04-16 22:26:06:877
7.215;-1.464;6.531;6.403;1.686;7.234;0.812;-3.15;-0.702;0.092;-2.604;2.371;16.8;-37.8;2.5;49.74;623;2018-04-16 22:26:06:888
7.215;-1.464;6.531;6.403;1.686;7.234;0.812;-3.15;-0.702;0.092;-2.604;2.371;16.8;-37.8;2.5;49.74;632;2018-04-16 22:26:06:897
7.215;-1.464;6.531;6.403;1.686;7.234;0.812;-3.15;-0.702;0.092;-2.604;2.371;16.8;-37.8;2.5;49.74;642;2018-04-16 22:26:06:907
7.779;-1.322;6.924;6.66;1.507;7.039;1.734;-2.684;0.372;0.079;-2.652;2.484;16.7;-37.8;2.2;49.74;652;2018-04-16 22:26:06:917
7.779;-1.322;6.924;6.66;1.507;7.039;1.734;-2.684;0.372;0.079;-2.652;2.484;16.7;-37.8;2.2;49.74;662;2018-04-16 22:26:06:927
14.85;1.731;11.734;7.533;0.416;6.265;7.317;1.315;5.469;-0.349;-0.308;2.082;16.7;-37.8;2.2;49.74;672;2018-04-16 22:26:06:937
14.85;1.731;11.734;7.533;0.416;6.265;7.317;1.315;5.469;-0.712;0.646;1.784;10.6;-40.0;-2.1;49.74;682;2018-04-16 22:26:06:947
13.906;2.295;11.309;7.361;0.073;6.479;6.078;2.419;4.417;-1.142;1.688;1.269;10.6;-40.0;-2.1;49.74;691;2018-04-16 22:26:06:956
12.264;2.346;10.035;7.361;0.073;6.479;6.078;2.419;4.417;-1.301;1.96;0.952;9.2;-40.5;-2.8;49.74;702;2018-04-16 22:26:06:967
10.707;2.357;8.681;7.1;-0.229;6.761;4.195;2.738;2.461;-1.361;1.858;0.709;7.8;-41.6;-2.5;49.74;712;2018-04-16 22:26:06:977
10.707;2.357;8.681;6.993;-0.352;6.866;3.34;2.555;1.554;-1.361;1.858;0.709;7.8;-41.6;-2.5;49.74;721;2018-04-16 22:26:06:986
9.825;1.921;7.922;6.993;-0.352;6.866;3.34;2.555;1.554;-1.337;1.6;0.629;7.8;-40.8;-3.9;49.74;731;2018-04-16 22:26:06:996
9.153;1.745;6.918;6.815;-0.606;7.026;2.338;2.351;-0.107;-1.275;1.243;0.555;7.8;-40.8;-3.9;49.51;742;2018-04-16 22:26:07:007
8.504;1.459;6.685;6.773;-0.72;7.056;1.732;2.18;-0.371;-1.126;0.518;0.38;6.9;-41.2;-4.9;49.51;752;2018-04-16 22:26:07:017
8.504;1.459;6.685;6.773;-0.72;7.056;1.732;2.18;-0.371;-1.126;0.518;0.38;6.9;-41.2;-3.6;49.51;762;2018-04-16 22:26:07:027
6.833;0.474;6.426;6.817;-0.864;6.996;0.016;1.338;-0.57;-0.706;-0.644;0.279;6.9;-41.2;-3.6;49.51;772;2018-04-16 22:26:07:037
6.833;0.474;6.426;6.817;-0.864;6.996;0.016;1.338;-0.57;-0.706;-0.644;0.279;6.7;-40.9;-3.9;49.51;782;2018-04-16 22:26:07:047
6.833;0.474;6.426;6.817;-0.864;6.996;0.016;1.338;-0.57;-0.706;-0.644;0.279;6.7;-40.9;-3.9;49.51;792;2018-04-16 22:26:07:057
6.833;0.474;6.426;6.817;-0.864;6.996;0.016;1.338;-0.57;-0.706;-0.644;0.279;6.7;-40.9;-3.9;49.51;802;2018-04-16 22:26:07:067
6.833;0.474;6.426;6.817;-0.864;6.996;0.016;1.338;-0.57;-0.706;-0.644;0.279;6.7;-40.9;-3.9;49.51;811;2018-04-16 22:26:07:076
6.406;0.595;5.885;6.882;-0.923;6.925;-0.477;1.518;-1.04;-0.613;-1.074;0.336;6.5;-41.3;-5.1;49.51;821;2018-04-16 22:26:07:086
4.814;-2.705;7.228;7.592;-1.191;6.092;-2.778;-1.514;1.136;0.644;-2.982;0.977;6.5;-41.3;-5.1;49.51;831;2018-04-16 22:26:07:096
4.814;-2.705;7.228;7.592;-1.191;6.092;-2.778;-1.514;1.136;0.644;-2.982;0.977;5.5;-41.1;-4.8;49.51;842;2018-04-16 22:26:07:107
4.233;-3.619;6.856;7.926;-1.306;5.625;-3.638;-2.362;1.181;0.998;-3.202;1.426;5.5;-41.1;-4.8;49.51;851;2018-04-16 22:26:07:116
4.474;-3.921;6.722;7.926;-1.306;5.625;-3.638;-2.362;1.181;1.161;-3.308;1.798;4.8;-41.0;-5.0;49.51;861;2018-04-16 22:26:07:126
4.474;-3.921;6.722;8.211;-1.534;5.138;-3.366;-2.766;1.197;1.269;-3.322;2.17;4.8;-41.0;-5.0;49.51;871;2018-04-16 22:26:07:136
5.158;-4.464;6.059;8.211;-1.534;5.138;-3.366;-2.766;1.197;1.311;-3.194;2.731;4.4;-41.2;-4.6;49.51;881;2018-04-16 22:26:07:146
5.681;-4.715;5.756;8.405;-1.914;4.675;-2.621;-2.98;0.803;1.305;-3.081;3.09;4.1;-40.9;-4.5;49.51;891;2018-04-16 22:26:07:156
5.681;-4.715;5.756;8.405;-1.914;4.675;-2.621;-2.98;0.803;1.305;-3.081;3.09;4.1;-40.9;-4.5;49.51;901;2018-04-16 22:26:07:166
6.17;-5.143;5.037;8.493;-2.465;4.239;-2.103;-2.951;0.285;1.241;-2.969;3.712;3.2;-41.2;-4.0;49.51;911;2018-04-16 22:26:07:176
6.17;-5.143;5.037;8.493;-2.465;4.239;-2.103;-2.951;0.285;1.175;-2.808;4.208;3.2;-41.2;-4.0;49.51;921;2018-04-16 22:26:07:186
8.035;-5.517;4.392;8.473;-3.101;3.842;-0.041;-2.396;0.574;1.155;-2.707;4.376;0.9;-41.3;-3.5;49.51;931;2018-04-16 22:26:07:196
9.452;-5.31;4.512;8.473;-3.101;3.842;-0.041;-2.396;0.574;1.155;-2.707;4.376;0.9;-41.3;-3.5;49.51;942;2018-04-16 22:26:07:207
9.452;-5.31;4.512;8.354;-3.769;3.49;1.875;-1.424;1.422;1.102;-2.497;4.434;-1.6;-40.8;-2.8;49.51;952;2018-04-16 22:26:07:217
10.739;-5.042;5.483;8.354;-3.769;3.49;1.875;-1.424;1.422;1.118;-2.382;4.341;-2.8;-40.5;-2.4;49.51;962;2018-04-16 22:26:07:227
12.447;-4.621;6.774;8.16;-4.371;3.236;4.287;-0.25;3.538;1.285;-2.016;4.049;-5.2;-39.1;0.0;49.51;972;2018-04-16 22:26:07:237
12.447;-4.621;6.774;8.16;-4.371;3.236;4.287;-0.25;3.538;1.285;-2.016;4.049;-5.2;-39.1;0.0;49.51;981;2018-04-16 22:26:07:246
13.793;-4.428;7.426;7.924;-4.823;3.18;6.1;0.407;4.254;1.582;-1.318;3.454;-5.2;-39.1;0.0;49.51;991;2018-04-16 22:26:07:256
14.279;-4.098;6.44;7.924;-4.823;3.18;6.1;0.407;4.254;1.809;-0.641;2.976;-7.6;-37.6;1.2;49.51;1002;2018-04-16 22:26:07:267
14.279;-4.098;6.44;7.665;-5.1;3.377;6.714;0.989;1.667;1.851;0.112;2.553;-7.6;-37.6;1.2;49.51;1012;2018-04-16 22:26:07:277
14.41;-4.501;4.779;7.665;-5.1;3.377;6.714;0.989;1.667;1.58;0.734;2.222;-9.5;-36.9;2.3;49.51;1023;2018-04-16 22:26:07:288
14.614;-5.304;5.186;7.352;-5.317;3.722;7.343;-0.089;1.67;1.168;1.437;1.983;-10.5;-35.9;0.9;49.51;1032;2018-04-16 22:26:07:297
14.667;-5.414;5.025;7.352;-5.317;3.722;7.343;-0.089;1.67;0.558;2.961;1.807;-12.5;-35.5;3.3;48.17;1042;2018-04-16 22:26:07:307
14.667;-5.414;5.025;6.873;-5.549;4.259;7.734;-0.216;-0.437;0.101;4.016;1.786;-12.5;-35.5;3.3;48.17;1051;2018-04-16 22:26:07:316
14.515;-5.965;3.485;6.873;-5.549;4.259;7.734;-0.216;-0.437;-0.429;4.551;1.494;-12.6;-33.9;2.6;48.17;1062;2018-04-16 22:26:07:327
14.292;-5.705;4.104;6.3;-5.778;4.806;7.992;0.072;-0.702;-0.429;4.551;1.494;-12.6;-33.9;2.6;48.17;1072;2018-04-16 22:26:07:337
14.292;-5.705;4.104;6.3;-5.778;4.806;7.992;0.072;-0.702;-0.305;4.286;1.224;-12.6;-33.9;2.6;48.17;1082;2018-04-16 22:26:07:347
13.817;-4.846;1.585;5.839;-5.863;5.263;7.707;1.133;-6.533;0.171;3.684;0.885;-14.5;-34.6;0.2;48.17;1092;2018-04-16 22:26:07:357
10.994;-4.784;-3.755;5.839;-5.863;5.263;7.707;1.133;-6.533;0.542;2.607;0.447;-14.5;-34.6;0.2;48.17;1101;2018-04-16 22:26:07:366
10.994;-4.784;-3.755;5.73;-5.824;5.423;1.639;-0.573;-4.349;0.456;0.469;-0.067;-14.8;-33.3;-1.6;48.17;1111;2018-04-16 22:26:07:376
6.812;-7.629;4.89;5.73;-5.824;5.423;1.639;-0.573;-4.349;0.456;0.469;-0.067;-14.8;-33.3;-1.6;48.17;1121;2018-04-16 22:26:07:386
6.172;-8.699;9.291;5.853;-5.707;5.416;0.319;-2.992;3.875;1.357;-1.421;0.23;-14.9;-33.3;-1.6;48.17;1131;2018-04-16 22:26:07:396
7.35;-6.531;8.727;5.853;-5.707;5.416;0.319;-2.992;3.875;2.812;-2.716;1.081;-15.2;-33.8;0.0;48.17;1142;2018-04-16 22:26:07:407
7.35;-6.531;8.727;6.014;-5.532;5.421;1.062;-0.195;2.089;2.812;-2.716;1.081;-15.2;-33.8;0.0;48.17;1151;2018-04-16 22:26:07:416
7.508;-4.867;4.867;6.014;-5.532;5.421;1.062;-0.195;2.089;2.847;-2.11;1.147;-15.2;-33.1;1.1;48.17;1161;2018-04-16 22:26:07:426
7.315;-4.453;2.328;6.15;-5.391;5.411;1.165;0.938;-3.083;2.342;-2.494;1.18;-15.2;-33.1;1.1;48.17;1171;2018-04-16 22:26:07:436
7.315;-4.453;2.328;6.15;-5.391;5.411;1.165;0.938;-3.083;2.342;-2.494;1.18;-15.6;-32.4;2.4;48.17;1182;2018-04-16 22:26:07:447
8.686;-3.833;5.905;6.378;-5.418;5.113;2.309;1.585;0.793;1.555;-3.973;1.566;-15.6;-32.4;2.4;48.17;1192;2018-04-16 22:26:07:457
8.686;-3.833;5.905;6.378;-5.418;5.113;2.309;1.585;0.793;1.155;-2.549;1.475;-16.2;-32.5;3.6;48.17;1201;2018-04-16 22:26:07:466
10.199;-3.141;4.946;6.458;-5.478;4.945;3.836;2.41;0.001;0.987;-1.927;1.161;-16.2;-32.5;3.6;48.17;1212;2018-04-16 22:26:07:477
9.802;-2.977;4.065;6.458;-5.478;4.945;3.836;2.41;0.001;0.892;-2.638;0.323;-16.0;-31.7;4.4;48.17;1222;2018-04-16 22:26:07:487
7.715;-3.575;10.042;6.637;-5.457;4.726;2.312;2.072;-0.53;0.998;-3.075;0.026;-15.7;-30.9;6.2;48.17;1232;2018-04-16 22:26:07:497
7.715;-3.575;10.042;6.637;-5.457;4.726;2.312;2.072;-0.53;1.767;-2.941;0.095;-15.7;-30.9;6.2;48.17;1242;2018-04-16 22:26:07:507
6.314;-5.552;3.931;6.888;-5.318;4.521;-0.574;-0.234;-0.59;1.869;-2.213;0.237;-15.5;-31.3;7.2;48.17;1252;2018-04-16 22:26:07:517
5.23;-5.397;1.533;6.888;-5.318;4.521;-0.574;-0.234;-0.59;1.505;-2.183;0.418;-15.5;-31.3;7.2;48.17;1262;2018-04-16 22:26:07:527
5.23;-5.397;1.533;7.041;-5.239;4.377;-1.37;0.044;-1.48;1.487;-2.38;0.492;-15.4;-29.9;9.2;48.17;1272;2018-04-16 22:26:07:537
6.15;-5.211;4.362;7.041;-5.239;4.377;-1.37;0.044;-1.48;1.888;-2.457;0.408;-15.4;-29.9;9.2;48.17;1282;2018-04-16 22:26:07:547
6.132;-4.465;1.253;7.211;-5.138;4.216;-1.08;0.672;-2.963;1.888;-2.457;0.408;-15.4;-29.9;9.2;48.17;1292;2018-04-16 22:26:07:557
6.132;-4.465;1.253;7.211;-5.138;4.216;-1.08;0.672;-2.963;2.029;-2.731;0.369;-15.4;-29.6;8.6;48.17;1301;2018-04-16 22:26:07:566
6.535;-3.592;2.269;7.416;-5.024;3.99;-1.002;1.398;-1.737;2.038;-2.958;0.369;-15.4;-29.6;8.6;48.17;1311;2018-04-16 22:26:07:576
7.301;-3.126;4.193;7.416;-5.024;3.99;-1.002;1.398;-1.737;1.998;-2.826;0.358;-14.2;-28.4;14.2;48.17;1322;2018-04-16 22:26:07:587
6.377;-2.418;2.723;7.595;-4.906;3.798;-1.218;2.488;-1.074;2.029;-2.487;0.193;-13.8;-28.2;13.9;48.17;1332;2018-04-16 22:26:07:597
6.377;-2.418;2.723;7.595;-4.906;3.798;-1.218;2.488;-1.074;2.029;-2.487;0.193;-13.8;-28.2;13.9;48.17;1341;2018-04-16 22:26:07:606
5.169;-2.18;1.715;7.753;-4.825;3.575;-1.959;2.648;-0.83;1.467;-2.379;0.2;-13.8;-28.2;13.9;48.17;1351;2018-04-16 22:26:07:616
6.134;-2.72;4.114;7.753;-4.825;3.575;-1.959;2.648;-0.83;0.904;-1.873;-0.183;-13.1;-26.0;17.4;48.17;1362;2018-04-16 22:26:07:627
3.841;-4.172;3.015;7.901;-4.734;3.367;-3.372;0.969;-0.054;0.861;-1.662;-0.28;-12.5;-25.6;17.3;48.17;1372;2018-04-16 22:26:07:637
3.841;-4.172;3.015;7.901;-4.734;3.367;-3.372;0.969;-0.054;0.781;-1.537;-0.126;-12.5;-25.6;17.3;48.01;1382;2018-04-16 22:26:07:647
3.972;-4.381;2.79;8.012;-4.665;3.196;-4.04;0.284;-0.406;0.729;-1.438;0.05;-11.8;-24.9;18.2;48.01;1392;2018-04-16 22:26:07:657
3.972;-4.381;1.566;8.012;-4.665;3.196;-4.04;0.284;-0.406;0.689;-1.417;0.147;-11.8;-24.9;18.2;48.01;1402;2018-04-16 22:26:07:667
4.023;-4.499;1.566;8.086;-4.649;3.028;-3.988;0.019;-1.505;0.643;-1.543;0.302;-11.2;-24.6;17.8;48.01;1412;2018-04-16 22:26:07:677
4.912;-4.373;2.058;8.086;-4.649;3.028;-3.988;0.019;-1.505;0.674;-1.636;0.423;-11.2;-24.6;17.8;48.01;1422;2018-04-16 22:26:07:687
6.506;-3.944;1.378;8.143;-4.677;2.827;-2.229;0.692;-1.057;0.75;-1.647;0.437;-10.0;-24.0;20.4;48.01;1432;2018-04-16 22:26:07:697
6.506;-3.944;1.378;8.143;-4.677;2.827;-2.229;0.692;-1.057;0.77;-1.714;0.376;-10.0;-24.0;20.4;48.01;1442;2018-04-16 22:26:07:707
6.917;-4.871;1.859;8.201;-4.696;2.62;-1.284;-0.175;-0.761;0.765;-1.717;0.314;-9.3;-24.6;21.9;48.01;1452;2018-04-16 22:26:07:717
6.917;-4.871;1.859;8.201;-4.696;2.62;-1.284;-0.175;-0.761;0.765;-1.717;0.314;-9.3;-24.6;21.9;48.01;1461;2018-04-16 22:26:07:726
7.742;-5.988;2.619;8.244;-4.717;2.44;-0.438;-1.838;0.253;0.673;-1.497;0.293;-9.3;-24.6;21.9;48.01;1471;2018-04-16 22:26:07:736
8.255;-7.393;2.909;8.244;-4.717;2.44;-0.438;-1.838;0.253;0.357;-0.986;0.423;-8.6;-23.0;22.1;48.01;1481;2018-04-16 22:26:07:746
8.255;-7.393;2.909;8.228;-4.803;2.323;0.981;-2.657;1.058;0.099;-0.707;0.717;-8.6;-23.0;22.1;48.01;1492;2018-04-16 22:26:07:757
9.608;-7.634;3.841;8.228;-4.803;2.323;0.981;-2.657;1.058;0.099;-0.707;0.717;-8.3;-22.8;21.9;48.01;1502;2018-04-16 22:26:07:767
9.461;-8.683;3.955;8.126;-5.015;2.232;1.335;-3.667;1.723;-0.122;-0.421;1.404;-8.3;-22.8;21.9;48.01;1512;2018-04-16 22:26:07:777
9.461;-8.683;3.955;8.126;-5.015;2.232;1.335;-3.667;1.723;-0.089;-0.313;1.77;-8.0;-23.2;22.0;48.01;1522;2018-04-16 22:26:07:787
9.923;-9.061;4.642;7.934;-5.33;2.192;2.078;-3.256;2.304;0.16;-0.297;2.101;-8.7;-23.7;22.8;48.01;1532;2018-04-16 22:26:07:797
10.036;-7.144;4.128;7.934;-5.33;2.192;2.078;-3.256;2.304;0.337;-0.14;2.164;-8.7;-23.7;22.8;48.01;1542;2018-04-16 22:26:07:807
10.036;-7.144;4.128;7.698;-5.644;2.249;1.897;-0.344;1.637;0.453;0.263;2.082;-8.7;-23.7;22.8;48.01;1551;2018-04-16 22:26:07:816
9.19;-5.294;3.043;7.698;-5.644;2.249;1.897;-0.344;1.637;0.329;0.709;1.697;-9.3;-22.9;21.8;48.01;1562;2018-04-16 22:26:07:827
7.678;-3.936;1.381;7.47;-5.886;2.392;0.208;1.95;-1.01;0.329;0.709;1.697;-9.3;-22.9;21.8;48.01;1571;2018-04-16 22:26:07:836
7.678;-3.936;1.381;7.47;-5.886;2.392;0.208;1.95;-1.01;-0.177;1.158;1.445;-9.3;-22.4;22.6;48.01;1581;2018-04-16 22:26:07:846
7.148;-3.243;1.481;7.252;-6.095;2.537;-0.123;3.197;-0.261;-0.395;1.297;1.217;-9.3;-22.4;22.6;48.01;1591;2018-04-16 22:26:07:856
6.792;-1.952;2.138;7.252;-6.095;2.537;-0.123;3.197;-0.261;-0.395;1.297;1.217;-9.8;-22.8;22.8;48.01;1601;2018-04-16 22:26:07:866
5.817;-1.622;0.417;7.108;-6.195;2.696;-1.292;4.572;-2.28;-0.213;1.3;0.628;-9.8;-22.8;22.8;48.01;1611;2018-04-16 22:26:07:876
5.817;-1.622;0.417;7.108;-6.195;2.696;-1.292;4.572;-2.28;-0.147;1.208;0.266;-9.9;-22.6;21.8;48.01;1621;2018-04-16 22:26:07:886
4.781;-1.769;-1.089;7.057;-6.209;2.797;-2.382;4.181;-3.792;-0.277;0.983;-0.002;-9.9;-22.6;21.8;48.01;1631;2018-04-16 22:26:07:896
4.096;-2.832;-0.339;7.057;-6.209;2.797;-2.382;4.181;-3.792;-0.426;0.755;-0.235;-9.5;-22.8;22.1;48.01;1641;2018-04-16 22:26:07:906
3.953;-2.982;-0.8;7.086;-6.168;2.813;-3.133;3.186;-3.612;-0.458;0.507;-0.441;-9.5;-22.8;22.1;48.01;1651;2018-04-16 22:26:07:916
3.953;-2.982;-0.8;7.086;-6.168;2.813;-3.133;3.186;-3.612;-0.37;0.254;-0.673;-9.4;-22.6;22.4;48.01;1661;2018-04-16 22:26:07:926
5.039;-2.69;-3.017;7.204;-6.063;2.74;-1.663;3.932;-5.989;-0.368;-0.122;-0.876;-9.4;-22.6;22.4;48.01;1671;2018-04-16 22:26:07:936
6.622;-0.163;-3.019;7.204;-6.063;2.74;-1.663;3.932;-5.989;-0.633;-0.93;-1.218;-9.4;-22.3;22.6;48.01;1682;2018-04-16 22:26:07:947
7.475;0.011;-1.02;7.435;-5.896;2.476;0.04;5.907;-3.496;-0.822;-1.42;-1.56;-9.3;-22.1;22.8;48.01;1692;2018-04-16 22:26:07:957
7.511;-1.964;-2.222;7.435;-5.896;2.476;0.04;5.907;-3.496;-0.959;-2.154;-2.079;-9.3;-22.1;22.8;49.5;1702;2018-04-16 22:26:07:967
7.511;-1.964;-2.222;7.782;-5.618;2.012;0.04;3.641;-3.455;-1.233;-2.975;-2.402;-9.3;-21.9;23.1;49.5;1712;2018-04-16 22:26:07:977
8.89;-2.569;0.634;7.782;-5.618;2.012;0.04;3.641;-3.455;-1.483;-3.457;-2.735;-9.3;-21.9;23.1;49.5;1722;2018-04-16 22:26:07:987
8.89;-2.569;0.634;8.197;-5.223;1.303;0.968;1.249;0.819;-1.483;-3.457;-2.735;-9.3;-21.9;23.1;49.5;1731;2018-04-16 22:26:07:996
8.738;-4.851;3.019;8.197;-5.223;1.303;0.968;1.249;0.819;-1.571;-3.643;-2.604;-9.1;-22.0;23.2;49.5;1742;2018-04-16 22:26:08:007
9.255;-7.591;3.783;8.518;-4.828;0.547;0.737;-2.763;3.236;-1.429;-2.943;-1.569;-8.9;-22.1;23.2;49.5;1752;2018-04-16 22:26:08:017
9.255;-7.591;3.783;8.518;-4.828;0.547;0.737;-2.763;3.236;-1.429;-2.943;-1.569;-8.9;-22.1;23.2;49.5;1761;2018-04-16 22:26:08:026
8.104;-6.503;3.065;8.636;-4.647;-0.038;0.103;-1.084;2.445;-1.442;-2.343;-0.71;-8.9;-22.1;23.2;49.5;1771;2018-04-16 22:26:08:036
11.606;-3.952;0.036;8.636;-4.647;-0.038;0.103;-1.084;2.445;-1.383;-1.797;0.049;-8.5;-22.3;23.2;49.5;1781;2018-04-16 22:26:08:046
11.606;-3.952;0.036;8.614;-4.666;-0.441;3.782;1.85;-1.287;-1.526;-1.337;0.244;-8.5;-22.3;23.2;49.5;1791;2018-04-16 22:26:08:056
11.92;-2.761;-2.172;8.614;-4.666;-0.441;3.782;1.85;-1.287;-1.708;-1.188;0.106;-6.3;-23.9;23.0;49.5;1801;2018-04-16 22:26:08:066
10.9;-3.541;-2.941;8.613;-4.615;-0.824;2.286;1.074;-2.117;-2.037;-1.031;-0.4;-4.7;-24.8;23.0;49.5;1812;2018-04-16 22:26:08:077
10.9;-3.541;-2.941;8.613;-4.615;-0.824;2.286;1.074;-2.117;-2.037;-1.031;-0.4;-4.7;-24.8;23.0;49.5;1821;2018-04-16 22:26:08:086
9.455;-5.012;-2.102;8.655;-4.479;-1.098;0.346;-1.214;-0.923;-2.186;-0.478;-0.586;-4.7;-24.8;23.0;49.5;1831;2018-04-16 22:26:08:096
7.553;-7.634;-2.221;8.655;-4.479;-1.098;0.346;-1.214;-0.923;-2.177;0.066;-0.454;-3.4;-26.1;21.8;49.5;1841;2018-04-16 22:26:08:106
7.553;-7.634;-2.221;8.641;-4.475;-1.216;-3.158;-5.347;-1.583;-2.081;0.415;0.144;-3.4;-26.1;21.8;49.5;1851;2018-04-16 22:26:08:116
3.809;-11.029;-2.634;8.641;-4.475;-1.216;-3.158;-5.347;-1.583;-1.956;0.539;1.289;-2.7;-28.0;22.4;49.5;1861;2018-04-16 22:26:08:126
2.23;-10.682;0.916;8.392;-4.914;-1.263;-6.162;-5.768;2.179;-1.726;0.621;2.781;-2.7;-28.0;22.4;49.5;1871;2018-04-16 22:26:08:136
2.846;-9.313;0.129;8.392;-4.914;-1.263;-6.162;-5.768;2.179;-0.92;1.086;4.435;-3.6;-29.6;20.8;49.5;1882;2018-04-16 22:26:08:147
2.846;-9.313;0.129;7.89;-5.713;-1.129;-4.714;-2.98;0.435;-0.15;1.124;4.993;-4.8;-29.5;19.7;49.5;1892;2018-04-16 22:26:08:157
3.632;-7.184;-1.381;7.89;-5.713;-1.129;-4.714;-2.98;0.435;1.217;-0.232;5.231;-4.8;-29.5;19.7;49.5;1902;2018-04-16 22:26:08:167
3.792;-6.412;-1.684;7.238;-6.538;-1.018;-3.445;0.127;-0.666;2.083;-1.431;5.109;-6.2;-29.3;19.4;49.5;1912;2018-04-16 22:26:08:177
4.058;-4.993;-0.891;7.238;-6.538;-1.018;-3.445;0.127;-0.666;2.716;-2.501;4.98;-6.2;-29.3;19.4;49.5;1922;2018-04-16 22:26:08:187
4.058;-4.993;-0.891;6.511;-7.267;-0.98;-2.451;2.649;0.914;3.222;-3.059;4.795;-6.4;-26.6;21.8;49.5;1932;2018-04-16 22:26:08:197
4.064;-4.196;0.946;6.511;-7.267;-0.98;-2.451;2.649;0.914;3.222;-3.059;4.795;-6.4;-26.6;21.8;49.5;1941;2018-04-16 22:26:08:206
4.064;-4.196;0.946;5.774;-7.884;-0.817;-0.956;3.928;0.052;3.522;-2.915;4.59;-6.4;-26.6;21.8;49.5;1951;2018-04-16 22:26:08:216
4.239;-4.33;0.547;5.774;-7.884;-0.817;-0.956;3.928;0.052;3.308;-2.919;3.995;-6.7;-26.0;21.9;49.5;1961;2018-04-16 22:26:08:226
2.834;-5.242;3.486;5.146;-8.325;-0.615;-2.312;3.083;4.101;2.997;-2.679;3.596;-6.7;-26.0;21.9;49.5;1972;2018-04-16 22:26:08:237
2.834;-5.242;3.486;5.146;-8.325;-0.615;-2.312;3.083;4.101;2.726;-1.775;3.627;-5.8;-24.8;23.5;49.5;1981;2018-04-16 22:26:08:246
1.377;-5.829;2.843;4.441;-8.741;-0.202;-3.279;3.237;2.155;2.453;0.512;4.371;-5.8;-24.8;23.5;49.5;1991;2018-04-16 22:26:08:256
0.74;-4.331;0.322;4.441;-8.741;-0.202;-3.279;3.237;2.155;2.453;0.512;4.371;-5.4;-22.7;24.0;49.5;2001;2018-04-16 22:26:08:266
0.74;-4.331;0.322;3.548;-9.139;0.251;-2.619;5.301;-0.074;1.874;1.581;5.013;-5.4;-22.7;24.0;49.5;2011;2018-04-16 22:26:08:276
0.882;-3.82;0.048;3.548;-9.139;0.251;-2.619;5.301;-0.074;1.4;1.786;5.098;-6.3;-21.0;24.8;51.42;2022;2018-04-16 22:26:08:287
0.311;-3.736;0.072;2.594;-9.443;0.515;-2.282;5.707;-0.443;0.468;2.087;4.999;-6.3;-21.0;24.8;51.42;2032;2018-04-16 22:26:08:297
-0.056;-3.286;-1.44;2.594;-9.443;0.515;-2.282;5.707;-0.443;-0.244;2.326;4.938;-8.5;-18.4;23.6;51.42;2042;2018-04-16 22:26:08:307
-0.056;-3.286;-1.44;1.628;-9.657;0.505;-1.711;6.752;-2.352;-0.817;2.308;4.91;-9.6;-16.3;23.5;51.42;2052;2018-04-16 22:26:08:317
-0.045;-2.521;-2.622;1.628;-9.657;0.505;-1.711;6.752;-2.352;-0.817;2.308;4.91;-9.6;-16.3;23.5;51.42;2061;2018-04-16 22:26:08:326
-0.045;-2.521;-2.622;0.668;-9.774;0.448;-0.021;7.312;-4.023;-0.055;-0.199;4.915;-9.6;-16.3;23.5;51.42;2071;2018-04-16 22:26:08:336
0.698;-14.286;-5.157;0.668;-9.774;0.448;-0.021;7.312;-4.023;0.661;-1.988;4.79;-11.8;-15.5;23.3;51.42;2081;2018-04-16 22:26:08:346
-9.096;-37.169;-0.093;-0.427;-9.777;0.634;-8.669;-27.392;-0.728;1.098;-4.997;6.502;-11.8;-15.5;23.3;51.42;2092;2018-04-16 22:26:08:357
4.95;-39.185;-4.474;-0.427;-9.777;0.634;-8.669;-27.392;-0.728;0.848;-4.198;10.244;-10.5;-13.2;22.5;51.42;2102;2018-04-16 22:26:08:367
4.95;-39.185;-4.474;-2.157;-9.529;0.849;14.919;-24.947;-9.526;0.848;-4.198;10.244;-9.2;-9.9;25.9;51.42;2112;2018-04-16 22:26:08:377
14.451;-21.423;-6.382;-2.157;-9.529;0.849;14.919;-24.947;-9.526;-2.812;-6.919;1.901;-9.2;-9.9;25.9;51.42;2121;2018-04-16 22:26:08:386
-7.872;-23.359;4.946;-1.917;-9.606;0.456;0.141;-14.004;2.025;-4.691;-7.242;-3.175;-5.0;-9.1;26.9;51.42;2132;2018-04-16 22:26:08:397
-7.872;-23.359;4.946;-1.917;-9.606;0.456;0.141;-14.004;2.025;-4.691;-7.242;-3.175;-5.0;-9.1;26.9;51.42;2142;2018-04-16 22:26:08:407
-3.257;-7.78;1.489;-1.522;-9.686;-0.165;-1.735;1.906;1.654;-4.542;-6.237;-1.935;-5.0;-9.1;26.9;51.42;2151;2018-04-16 22:26:08:416
-3.257;-7.78;1.489;-1.522;-9.686;-0.165;-1.735;1.906;1.654;-2.902;-7.09;-1.025;-2.9;-10.9;28.4;51.42;2161;2018-04-16 22:26:08:426
-2.206;-3.077;5.107;-1.405;-9.705;-0.039;-0.988;6.836;5.727;-0.529;-8.391;-0.743;-2.9;-10.9;28.4;51.42;2172;2018-04-16 22:26:08:437
-3.014;-3.596;6.159;-1.405;-9.705;-0.039;-0.988;6.836;5.727;1.096;-7.333;-0.415;2.2;-12.8;27.5;51.42;2182;2018-04-16 22:26:08:447
-3.254;-3.889;5.847;-1.324;-9.709;0.381;-1.929;5.82;5.465;1.393;-5.679;-0.232;5.6;-11.7;25.6;51.42;2192;2018-04-16 22:26:08:457
-4.211;-5.685;5.101;-1.324;-9.709;0.381;-1.929;5.82;5.465;1.444;-2.579;-0.236;5.6;-11.7;25.6;51.42;2202;2018-04-16 22:26:08:467
-4.211;-5.685;5.101;-1.269;-9.697;0.733;-3.241;3.016;4.114;1.444;-2.579;-0.236;5.6;-11.7;25.6;51.42;2211;2018-04-16 22:26:08:476
-4.536;-8.079;3.547;-1.269;-9.697;0.733;-3.241;3.016;4.114;1.038;1.316;-0.494;7.8;-11.2;27.4;51.42;2222;2018-04-16 22:26:08:487
-4.31;-8.809;1.975;-1.227;-9.694;0.835;-3.083;0.884;1.14;0.606;3.632;-0.639;7.7;-11.4;27.7;51.42;2232;2018-04-16 22:26:08:497
-4.31;-8.809;1.975;-1.227;-9.694;0.835;-3.083;0.884;1.14;0.606;3.632;-0.639;7.7;-11.4;27.7;51.42;2242;2018-04-16 22:26:08:507
-4.056;-10.848;-0.352;-1.215;-9.702;0.751;-2.841;-1.146;-1.103;0.257;5.679;-0.553;6.8;-10.0;28.3;51.42;2252;2018-04-16 22:26:08:517
-4.056;-10.848;-0.352;-1.215;-9.702;0.751;-2.841;-1.146;-1.103;0.266;6.241;-0.309;6.8;-10.0;28.3;51.42;2261;2018-04-16 22:26:08:526
-2.715;-10.77;-2.777;-1.288;-9.698;0.677;-1.149;-0.996;-3.642;0.392;6.205;-0.064;4.5;-10.5;28.3;51.42;2271;2018-04-16 22:26:08:536
-1.791;-10.202;-2.975;-1.288;-9.698;0.677;-1.149;-0.996;-3.642;0.602;5.217;0.092;1.2;-9.9;29.1;51.42;2282;2018-04-16 22:26:08:547
-1.693;-9.883;-2.412;-1.362;-9.689;0.657;-0.33;-0.194;-3.07;0.575;4.418;0.023;1.2;-9.9;29.1;51.42;2291;2018-04-16 22:26:08:556
-1.693;-9.883;-2.412;-1.362;-9.689;0.657;-0.33;-0.194;-3.07;0.575;4.418;0.023;1.2;-9.9;29.1;51.42;2302;2018-04-16 22:26:08:567
-2.392;-9.718;-1.656;-1.389;-9.689;0.597;-1.062;0.055;-2.21;0.279;3.515;-0.13;-1.1;-9.7;27.1;51.42;2311;2018-04-16 22:26:08:576
-2.173;-9.346;-1.614;-1.389;-9.689;0.597;-1.062;0.055;-2.21;-0.316;2.283;0.044;-3.3;-9.5;27.0;51.42;2322;2018-04-16 22:26:08:587
-2.173;-9.585;-1.429;-1.423;-9.692;0.464;-0.459;0.32;-1.977;-0.479;1.6;0.048;-3.3;-9.5;27.0;51.42;2332;2018-04-16 22:26:08:597
-1.844;-9.585;-1.429;-1.434;-9.693;0.395;-0.459;0.32;-1.977;-0.479;1.6;0.048;-3.3;-9.5;27.0;68.5;2342;2018-04-16 22:26:08:607
-1.814;-9.798;-0.95;-1.434;-9.693;0.395;-0.37;-0.104;-1.265;-0.59;0.85;0.048;-3.5;-8.7;27.0;68.5;2352;2018-04-16 22:26:08:617
-1.814;-9.798;-0.95;-1.452;-9.695;0.258;-0.37;-0.104;-1.265;-0.645;0.105;0.079;-3.5;-8.7;27.0;68.5;2362;2018-04-16 22:26:08:627
-1.743;-9.996;-0.265;-1.452;-9.695;0.258;-0.215;-0.261;-0.258;-0.626;-0.864;0.159;-3.7;-9.4;26.3;68.5;2372;2018-04-16 22:26:08:637
-1.618;-9.766;0.298;-1.482;-9.692;0.171;-0.215;-0.261;-0.258;-0.589;-1.304;0.182;-3.6;-9.9;26.6;68.5;2382;2018-04-16 22:26:08:647
-1.618;-9.766;0.298;-1.482;-9.692;0.171;-0.148;0.073;0.505;-0.556;-1.565;0.183;-3.6;-9.9;26.6;68.5;2392;2018-04-16 22:26:08:657
-1.654;-9.548;0.833;-1.514;-9.688;0.12;-0.148;0.073;0.505;-0.527;-1.659;0.175;-3.6;-10.3;26.7;68.5;2402;2018-04-16 22:26:08:667
-1.7;-9.456;1.228;-1.514;-9.688;0.12;-0.168;0.23;1.129;-0.498;-1.608;0.164;-2.5;-10.3;26.7;68.5;2412;2018-04-16 22:26:08:677
-1.7;-9.456;1.228;-1.545;-9.684;0.085;-0.168;0.23;1.129;-0.469;-1.437;0.147;-2.5;-10.3;26.7;68.5;2422;2018-04-16 22:26:08:687
-1.618;-9.378;1.59;-1.545;-9.684;0.085;-0.046;0.303;1.609;-0.391;-1.048;0.105;-1.7;-10.5;28.2;68.5;2432;2018-04-16 22:26:08:697
-1.609;-9.398;1.792;-1.567;-9.68;0.058;-0.046;0.303;1.609;-0.391;-1.048;0.105;-1.7;-10.5;28.2;68.5;2441;2018-04-16 22:26:08:706
-1.62;-9.42;1.778;-1.575;-9.679;0.048;-0.045;0.259;1.73;-0.315;-0.734;0.077;-0.9;-10.7;27.7;68.5;2452;2018-04-16 22:26:08:717
-1.62;-9.42;1.778;-1.575;-9.679;0.048;-0.045;0.259;1.73;-0.219;-0.42;0.056;-0.9;-10.7;27.7;68.5;2462;2018-04-16 22:26:08:727
-1.598;-9.428;1.44;-1.584;-9.678;0.048;-0.003;0.239;1.289;-0.104;-0.137;0.038;-0.4;-10.6;27.7;68.5;2472;2018-04-16 22:26:08:737
-1.616;-9.51;1.01;-1.586;-9.677;0.058;-0.03;0.168;0.952;0.093;0.155;0.007;-0.4;-10.6;27.7;68.5;2483;2018-04-16 22:26:08:748
-1.616;-9.51;1.01;-1.586;-9.677;0.058;-0.03;0.168;0.952;0.252;0.216;-0.006;-0.3;-9.8;27.3;68.5;2492;2018-04-16 22:26:08:757
-1.662;-9.673;0.309;-1.585;-9.677;0.125;-0.1;-0.021;-0.007;0.491;0.075;-0.012;-1.1;-10.2;27.7;68.5;2502;2018-04-16 22:26:08:767
-1.689;-9.759;-0.062;-1.585;-9.677;0.125;-0.1;-0.021;-0.007;0.788;-0.228;-0.016;-1.1;-10.2;27.7;68.5;2512;2018-04-16 22:26:08:777
-1.689;-9.759;-0.062;-1.581;-9.674;0.3;-0.053;-0.08;-0.562;0.788;-0.228;-0.016;-1.1;-10.3;26.9;68.5;2523;2018-04-16 22:26:08:788
-1.895;-9.896;-0.294;-1.578;-9.67;0.408;-0.328;-0.239;-0.808;0.985;-0.52;-0.017;-1.1;-10.3;26.9;68.5;2533;2018-04-16 22:26:08:798
-1.8;-9.779;-0.675;-1.578;-9.67;0.408;-0.328;-0.239;-0.808;0.924;-0.566;-0.001;-1.4;-10.2;27.6;68.5;2543;2018-04-16 22:26:08:808
-1.348;-9.461;-1.581;-1.575;-9.663;0.565;0.227;0.202;-2.146;0.743;-0.644;0.031;-1.4;-10.2;27.6;68.5;2552;2018-04-16 22:26:08:817
-1.348;-9.461;-1.581;-1.575;-9.663;0.565;0.227;0.202;-2.146;0.681;-0.837;0.033;-1.9;-10.1;27.6;68.5;2562;2018-04-16 22:26:08:827
-1.112;-9.431;-2.473;-1.565;-9.656;0.693;0.532;0.157;-3.282;0.547;-1.129;0.037;-2.2;-10.0;27.6;68.5;2572;2018-04-16 22:26:08:837
-0.946;-9.567;-2.522;-1.565;-9.656;0.693;0.532;0.157;-3.282;0.347;-1.179;0.0;-2.2;-10.0;27.6;68.5;2582;2018-04-16 22:26:08:847
-0.946;-9.882;-1.573;-1.543;-9.654;0.77;0.449;-0.125;-2.696;-0.062;-0.948;-0.013;-2.3;-10.0;27.6;68.5;2592;2018-04-16 22:26:08:857
-1.287;-9.882;-1.573;-1.543;-9.654;0.77;0.449;-0.125;-2.696;-0.062;-0.948;-0.013;-2.3;-10.0;27.6;68.5;2602;2018-04-16 22:26:08:867
-1.135;-9.498;-1.04;-1.528;-9.659;0.734;0.393;0.161;-1.774;-0.362;-0.649;0.01;-2.3;-10.0;27.6;68.5;2612;2018-04-16 22:26:08:877
-1.135;-9.498;-1.04;-1.528;-9.659;0.734;0.393;0.161;-1.774;-0.639;-0.368;-0.035;-2.2;-10.1;27.6;68.5;2622;2018-04-16 22:26:08:887
-2.025;-10.045;0.236;-1.511;-9.672;0.589;-1.477;-0.743;0.137;-0.865;-0.035;-0.089;-2.2;-10.1;27.6;68.5;2636;2018-04-16 22:26:08:901
-2.025;-10.045;0.236;-1.511;-9.672;0.589;-1.477;-0.743;0.137;-0.865;-0.035;-0.089;-1.9;-10.1;27.7;68.5;2642;2018-04-16 22:26:08:907
-1.483;-9.033;0.676;-1.53;-9.677;0.436;0.114;0.611;0.236;-0.767;0.302;0.116;-1.9;-10.1;27.7;68.5;2652;2018-04-16 22:26:08:917
-2.324;-9.855;1.191;-1.53;-9.677;0.436;0.114;0.611;0.236;-0.53;0.36;-0.169;-1.6;-10.2;27.7;68.5;2662;2018-04-16 22:26:08:927
-2.324;-9.855;1.191;-1.511;-9.683;0.349;-1.187;-0.328;1.228;-0.296;0.437;-0.108;-1.6;-10.2;27.7;68.5;2671;2018-04-16 22:26:08:936
-2.387;-9.7;1.543;-1.511;-9.683;0.349;-1.187;-0.328;1.228;-0.032;0.65;-0.05;-1.2;-10.2;27.8;51.59;2682;2018-04-16 22:26:08:947
-2.174;-9.238;1.373;-1.51;-9.684;0.331;-0.664;0.446;1.042;0.053;0.811;-0.122;-0.9;-10.2;27.9;51.59;2692;2018-04-16 22:26:08:957
-2.174;-9.238;1.373;-1.51;-9.684;0.331;-0.664;0.446;1.042;0.097;0.962;-0.131;-0.9;-10.2;27.9;51.59;2702;2018-04-16 22:26:08:967
-2.714;-9.246;0.917;-1.505;-9.685;0.326;-1.24;0.512;0.353;0.097;0.962;-0.131;-0.9;-10.2;27.9;51.59;2711;2018-04-16 22:26:08:976
-2.796;-9.164;0.304;-1.505;-9.685;0.326;-1.24;0.512;0.353;0.125;1.018;-0.097;-0.6;-10.2;28.0;51.59;2722;2018-04-16 22:26:08:987
-2.796;-9.164;0.304;-1.507;-9.685;0.318;-1.415;0.453;-0.221;0.123;0.925;-0.092;-0.6;-10.2;28.0;51.59;2732;2018-04-16 22:26:08:997
-3.013;-9.293;0.043;-1.507;-9.685;0.318;-1.415;0.453;-0.221;0.148;0.662;-0.062;-0.5;-10.2;27.9;51.59;2742;2018-04-16 22:26:09:007
-3.097;-9.471;0.011;-1.513;-9.684;0.323;-1.584;0.212;-0.312;0.148;0.662;-0.062;-0.4;-10.1;27.9;51.59;2752;2018-04-16 22:26:09:017
-2.889;-9.536;0.037;-1.513;-9.684;0.323;-1.584;0.212;-0.312;0.173;0.357;-0.01;-0.4;-10.1;28.0;51.59;2763;2018-04-16 22:26:09:028
-2.889;-9.536;0.037;-1.525;-9.681;0.344;-1.315;0.125;-0.315;0.173;0.357;-0.01;-0.4;-10.1;28.0;51.59;2772;2018-04-16 22:26:09:037
-2.732;-9.612;-0.018;-1.525;-9.681;0.344;-1.315;0.125;-0.315;0.15;0.105;0.023;-0.4;-10.1;28.0;51.59;2782;2018-04-16 22:26:09:047
-2.5;-9.64;-0.145;-1.541;-9.678;0.363;-1.065;0.021;-0.467;0.117;-0.042;0.045;-0.4;-10.0;28.0;51.59;2792;2018-04-16 22:26:09:057
-2.5;-9.64;-0.145;-1.541;-9.678;0.363;-1.065;0.021;-0.467;0.061;-0.274;0.082;-0.4;-10.0;28.0;51.59;2802;2018-04-16 22:26:09:067
-2.225;-9.564;-0.183;-1.562;-9.674;0.378;-0.663;0.11;-0.561;0.034;-0.45;0.099;-0.4;-10.0;28.1;51.59;2812;2018-04-16 22:26:09:077
-2.225;-9.564;-0.183;-1.562;-9.674;0.378;-0.663;0.11;-0.561;0.034;-0.45;0.099;-0.4;-10.0;28.1;51.59;2822;2018-04-16 22:26:09:087
-1.941;-9.542;-0.068;-1.581;-9.67;0.4;-0.297;0.128;-0.427;0.038;-0.83;0.112;-0.4;-9.9;28.2;51.59;2832;2018-04-16 22:26:09:097
-1.737;-9.549;0.062;-1.581;-9.67;0.4;-0.297;0.128;-0.427;0.038;-0.83;0.112;-0.4;-9.9;28.2;51.59;2842;2018-04-16 22:26:09:107
-1.651;-9.561;0.12;-1.596;-9.666;0.433;-0.055;0.105;-0.313;0.04;-0.889;0.11;-0.4;-9.8;28.2;51.59;2852;2018-04-16 22:26:09:117
-1.651;-9.561;0.12;-1.596;-9.666;0.433;-0.055;0.105;-0.313;0.04;-0.892;0.104;-0.4;-9.8;28.1;51.59;2863;2018-04-16 22:26:09:128
-1.468;-9.579;0.176;-1.605;-9.663;0.465;0.165;0.077;-0.272;0.051;-0.803;0.092;-0.4;-9.8;28.1;51.59;2872;2018-04-16 22:26:09:137
-1.405;-9.6;0.214;-1.605;-9.663;0.465;0.165;0.077;-0.272;0.072;-0.69;0.076;-0.3;-9.9;28.2;51.59;2882;2018-04-16 22:26:09:147
-1.405;-9.6;0.214;-1.608;-9.662;0.481;0.216;0.048;-0.266;0.072;-0.69;0.076;-0.3;-9.9;28.2;51.59;2893;2018-04-16 22:26:09:158
-1.378;-9.639;0.225;-1.608;-9.662;0.481;0.216;0.048;-0.266;0.094;-0.353;0.032;-0.3;-10.0;28.0;51.59;2902;2018-04-16 22:26:09:167
-1.378;-9.639;0.225;-1.608;-9.662;0.481;0.216;0.048;-0.266;0.094;-0.353;0.032;-0.3;-10.0;28.0;51.59;2912;2018-04-16 22:26:09:177
-1.397;-9.592;0.154;-1.607;-9.66;0.517;0.21;0.068;-0.362;0.079;-0.021;-0.006;-0.3;-10.0;28.0;51.59;2922;2018-04-16 22:26:09:187
-1.623;-9.547;0.045;-1.602;-9.661;0.51;-0.117;0.134;-0.481;0.038;0.291;-0.048;-0.3;-10.0;28.0;51.59;2933;2018-04-16 22:26:09:198
-1.623;-9.547;0.045;-1.602;-9.661;0.51;-0.117;0.134;-0.481;0.011;0.45;-0.057;-0.3;-10.0;27.9;51.59;2942;2018-04-16 22:26:09:207
-1.878;-9.503;-0.049;-1.6;-9.662;0.499;-0.278;0.16;-0.548;-0.027;0.567;-0.061;-0.4;-10.0;27.8;51.59;2952;2018-04-16 22:26:09:217
-2.065;-9.547;-0.16;-1.598;-9.664;0.467;-0.467;0.117;-0.628;-0.027;0.567;-0.061;-0.4;-10.0;27.8;51.59;2962;2018-04-16 22:26:09:227
-2.065;-9.547;-0.16;-1.598;-9.664;0.467;-0.467;0.117;-0.628;-0.07;0.539;-0.046;-0.4;-10.0;27.8;51.59;2972;2018-04-16 22:26:09:237
-2.163;-9.607;-0.221;-1.599;-9.666;0.43;-0.599;0.058;-0.663;-0.07;0.539;-0.046;-0.4;-10.0;27.8;51.59;2981;2018-04-16 22:26:09:246
-2.231;-9.573;-0.232;-1.599;-9.667;0.411;-0.632;0.093;-0.643;-0.087;0.39;-0.04;-0.4;-10.0;27.8;51.59;2992;2018-04-16 22:26:09:257
-2.231;-9.573;-0.232;-1.599;-9.667;0.411;-0.632;0.093;-0.643;-0.093;0.182;-0.023;-0.4;-10.0;27.8;49.19;3001;2018-04-16 22:26:09:266
-2.265;-9.477;-0.111;-1.602;-9.667;0.384;-0.672;0.209;-0.452;-0.095;0.049;-0.016;-0.5;-10.0;27.7;49.19;3012;2018-04-16 22:26:09:277
-2.286;-9.469;0.043;-1.602;-9.667;0.384;-0.672;0.209;-0.452;-0.095;0.049;-0.016;-0.5;-10.0;27.7;49.19;3023;2018-04-16 22:26:09:288
-2.286;-9.469;0.043;-1.602;-9.667;0.384;-0.672;0.209;-0.452;-0.095;0.049;-0.016;-0.5;-10.0;27.7;49.19;3032;2018-04-16 22:26:09:297
-2.294;-9.48;0.097;-1.61;-9.667;0.361;-0.684;0.183;-0.221;-0.114;-0.106;0.001;-0.5;-10.0;27.7;49.19;3041;2018-04-16 22:26:09:306
-2.124;-9.458;0.363;-1.624;-9.665;0.345;-0.499;0.207;0.017;-0.109;-0.214;0.017;-0.4;-10.0;27.7;49.19;3052;2018-04-16 22:26:09:317
-2.003;-9.469;0.455;-1.624;-9.665;0.345;-0.499;0.207;0.017;-0.082;-0.23;0.021;-0.4;-10.0;27.7;49.19;3062;2018-04-16 22:26:09:327
-2.003;-9.469;0.455;-1.632;-9.664;0.341;-0.342;0.202;0.129;-0.05;-0.217;0.013;-0.3;-10.0;27.7;49.19;3073;2018-04-16 22:26:09:338
-1.941;-9.471;0.481;-1.632;-9.664;0.341;-0.342;0.202;0.129;-0.05;-0.217;0.013;-0.3;-10.0;27.7;49.19;3082;2018-04-16 22:26:09:347
-1.954;-9.493;0.467;-1.635;-9.663;0.347;-0.319;0.17;0.12;-0.007;-0.173;-0.001;-0.3;-10.0;27.7;49.19;3092;2018-04-16 22:26:09:357
-1.982;-9.516;0.354;-1.635;-9.663;0.347;-0.319;0.17;0.12;0.034;-0.111;-0.017;-0.2;-10.1;27.6;49.19;3102;2018-04-16 22:26:09:367
-1.982;-9.516;0.354;-1.639;-9.662;0.358;-0.393;0.133;-0.053;0.059;-0.072;-0.028;-0.2;-10.1;27.7;49.19;3112;2018-04-16 22:26:09:377
-2.096;-9.519;0.212;-1.639;-9.662;0.358;-0.393;0.133;-0.053;0.059;-0.072;-0.028;-0.1;-10.0;27.7;49.19;3122;2018-04-16 22:26:09:387
-2.096;-9.519;0.212;-1.646;-9.66;0.367;-0.52;0.155;-0.245;0.082;-0.031;-0.04;-0.1;-10.0;27.7;49.19;3132;2018-04-16 22:26:09:397
-2.195;-9.492;0.066;-1.646;-9.66;0.367;-0.52;0.155;-0.245;0.089;-0.016;-0.038;0.0;-10.0;27.7;49.19;3142;2018-04-16 22:26:09:407
-2.285;-9.427;-0.012;-1.661;-9.658;0.371;-0.625;0.231;-0.383;0.092;-0.004;-0.034;0.0;-10.0;27.7;49.19;3151;2018-04-16 22:26:09:416
-2.285;-9.427;-0.012;-1.661;-9.658;0.371;-0.625;0.231;-0.383;0.072;0.006;-0.018;0.0;-10.0;27.7;49.19;3161;2018-04-16 22:26:09:426
-2.344;-9.467;-0.072;-1.661;-9.658;0.371;-0.625;0.231;-0.383;0.05;0.012;-0.007;0.0;-10.0;27.7;49.19;3172;2018-04-16 22:26:09:437
-2.357;-9.494;-0.044;-1.682;-9.654;0.364;-0.671;0.188;-0.426;0.05;0.012;-0.007;0.0;-10.0;27.7;49.19;3182;2018-04-16 22:26:09:447
-2.175;-9.523;0.008;-1.706;-9.651;0.348;-0.529;0.14;-0.348;0.023;0.017;0.006;0.0;-9.9;27.7;49.19;3192;2018-04-16 22:26:09:457
-2.175;-9.523;0.008;-1.706;-9.651;0.348;-0.529;0.14;-0.348;-0.044;0.066;0.029;0.0;-9.9;27.7;49.19;3202;2018-04-16 22:26:09:467
-2.016;-9.576;0.075;-1.724;-9.648;0.324;-0.292;0.073;-0.249;-0.065;0.089;0.028;0.0;-9.9;27.7;49.19;3211;2018-04-16 22:26:09:476
-1.911;-9.603;0.17;-1.724;-9.648;0.324;-0.292;0.073;-0.249;-0.072;0.111;0.02;0.0;-9.9;27.8;49.19;3222;2018-04-16 22:26:09:487
-1.911;-9.603;0.17;-1.733;-9.648;0.302;-0.16;0.046;-0.11;-0.072;0.111;0.02;0.0;-9.9;27.8;49.19;3232;2018-04-16 22:26:09:497
-1.887;-9.612;0.214;-1.733;-9.648;0.302;-0.16;0.046;-0.11;-0.062;0.115;0.013;0.0;-9.9;27.9;49.19;3242;2018-04-16 22:26:09:507
-1.894;-9.588;0.193;-1.737;-9.647;0.288;-0.157;0.06;-0.096;-0.032;0.097;-0.004;0.0;-9.9;28.0;49.19;3252;2018-04-16 22:26:09:517
-1.894;-9.588;0.193;-1.737;-9.647;0.288;-0.157;0.06;-0.096;-0.032;0.097;-0.004;0.0;-9.9;28.0;49.19;3262;2018-04-16 22:26:09:527
-1.976;-9.553;0.192;-1.739;-9.647;0.283;-0.256;0.11;-0.101;-0.005;0.068;-0.017;0.0;-9.9;27.9;49.19;3272;2018-04-16 22:26:09:537
-2.065;-9.534;0.176;-1.739;-9.647;0.283;-0.256;0.11;-0.101;0.004;0.046;-0.022;0.0;-9.9;27.9;49.19;3282;2018-04-16 22:26:09:547
-2.065;-9.534;0.176;-1.745;-9.646;0.278;-0.397;0.135;-0.127;0.002;0.035;-0.024;0.0;-9.9;28.0;49.19;3292;2018-04-16 22:26:09:557
-2.178;-9.495;0.128;-1.745;-9.646;0.278;-0.397;0.135;-0.127;0.002;0.02;-0.022;0.0;-9.9;28.0;49.19;3301;2018-04-16 22:26:09:566
-2.219;-9.444;0.105;-1.757;-9.644;0.272;-0.478;0.169;-0.176;0.002;0.004;-0.018;0.0;-9.9;27.9;49.19;3312;2018-04-16 22:26:09:577
-2.233;-9.451;0.145;-1.757;-9.644;0.272;-0.478;0.169;-0.176;0.005;-0.013;-0.011;0.0;-9.9;27.9;49.6;3322;2018-04-16 22:26:09:587
-2.233;-9.451;0.145;-1.771;-9.642;0.268;-0.433;0.223;-0.112;0.005;-0.02;-0.011;0.0;-9.9;27.9;49.6;3332;2018-04-16 22:26:09:597
-2.188;-9.431;0.17;-1.771;-9.642;0.268;-0.433;0.223;-0.112;0.002;-0.01;-0.006;0.0;-9.9;27.9;49.6;3341;2018-04-16 22:26:09:606
-2.127;-9.457;0.138;-1.785;-9.639;0.264;-0.343;0.182;-0.126;0.01;0.01;0.004;0.0;-9.8;27.9;49.6;3352;2018-04-16 22:26:09:617
-2.127;-9.457;0.138;-1.785;-9.639;0.264;-0.343;0.182;-0.126;0.01;0.01;0.004;0.0;-9.8;27.9;49.6;3362;2018-04-16 22:26:09:627
-2.03;-9.48;0.134;-1.795;-9.637;0.259;-0.214;0.172;-0.128;0.01;0.051;0.005;0.0;-9.8;27.9;49.6;3372;2018-04-16 22:26:09:637
-1.973;-9.48;0.127;-1.795;-9.637;0.259;-0.214;0.172;-0.128;0.01;0.051;0.005;0.0;-9.8;27.9;49.6;3382;2018-04-16 22:26:09:647
-1.973;-9.48;0.127;-1.802;-9.636;0.252;-0.154;0.145;-0.14;-0.002;0.108;-0.001;0.0;-9.9;27.9;49.6;3392;2018-04-16 22:26:09:657
-1.949;-9.501;0.096;-1.802;-9.636;0.252;-0.154;0.145;-0.14;-0.011;0.116;-0.002;0.0;-9.9;27.8;49.6;3402;2018-04-16 22:26:09:667
-1.949;-9.504;0.042;-1.806;-9.636;0.241;-0.143;0.132;-0.199;-0.011;0.116;-0.002;0.0;-9.9;27.8;49.6;3412;2018-04-16 22:26:09:677
-1.949;-9.504;0.042;-1.806;-9.636;0.241;-0.143;0.132;-0.199;-0.015;0.108;-0.006;0.0;-9.9;27.8;49.6;3422;2018-04-16 22:26:09:687
-2.017;-9.457;0.002;-1.811;-9.635;0.228;-0.223;0.176;-0.226;-0.022;0.051;-0.007;0.0;-9.9;27.9;49.6;3432;2018-04-16 22:26:09:697
-2.065;-9.451;0.001;-1.811;-9.635;0.228;-0.223;0.176;-0.226;-0.032;0.005;-0.004;0.0;-10.0;27.8;49.6;3442;2018-04-16 22:26:09:707
-2.133;-9.482;0.043;-1.819;-9.634;0.216;-0.314;0.152;-0.173;-0.037;-0.044;0.0;0.0;-10.0;27.8;49.6;3452;2018-04-16 22:26:09:717
-2.133;-9.482;0.043;-1.819;-9.634;0.216;-0.314;0.152;-0.173;-0.038;-0.089;0.006;0.0;-9.9;27.8;49.6;3462;2018-04-16 22:26:09:727
-2.191;-9.55;0.132;-1.829;-9.632;0.21;-0.369;0.067;-0.038;-0.037;-0.131;0.015;-0.1;-10.0;27.8;49.6;3472;2018-04-16 22:26:09:737
-2.221;-9.59;0.275;-1.829;-9.632;0.21;-0.369;0.067;-0.038;-0.027;-0.138;0.02;-0.1;-10.0;27.8;49.6;3482;2018-04-16 22:26:09:747
-2.221;-9.59;0.275;-1.838;-9.631;0.213;-0.366;0.063;0.088;-0.027;-0.138;0.02;-0.1;-10.0;27.8;49.6;3492;2018-04-16 22:26:09:757
-2.199;-9.558;0.277;-1.838;-9.631;0.213;-0.366;0.063;0.088;0.005;-0.125;0.021;-0.1;-10.0;27.8;49.6;3502;2018-04-16 22:26:09:767
-2.199;-9.558;0.277;-1.838;-9.631;0.213;-0.366;0.063;0.088;0.005;-0.125;0.021;-0.1;-10.0;27.8;49.6;3516;2018-04-16 22:26:09:781
-2.148;-9.515;0.229;-1.845;-9.629;0.224;-0.281;0.135;-0.038;0.037;-0.114;0.021;-0.1;-10.0;27.8;49.6;3522;2018-04-16 22:26:09:787
-2.148;-9.515;0.229;-1.845;-9.629;0.224;-0.281;0.135;-0.038;0.037;-0.114;0.021;-0.1;-10.0;27.8;49.6;3532;2018-04-16 22:26:09:797
-1.979;-9.528;-0.029;-1.853;-9.627;0.245;-0.126;0.099;-0.274;0.075;-0.043;0.012;-0.1;-9.9;27.8;49.6;3542;2018-04-16 22:26:09:807
-1.936;-9.561;-0.116;-1.853;-9.627;0.245;-0.126;0.099;-0.274;0.053;-0.012;0.009;-0.1;-9.9;27.8;49.6;3552;2018-04-16 22:26:09:817
-1.936;-9.561;-0.116;-1.855;-9.626;0.249;-0.063;0.063;-0.373;0.033;0.024;0.002;-0.1;-10.0;28.0;49.6;3562;2018-04-16 22:26:09:827
-1.906;-9.586;-0.124;-1.855;-9.626;0.249;-0.063;0.063;-0.373;0.033;0.024;0.002;-0.1;-10.0;28.0;49.6;3572;2018-04-16 22:26:09:837
-1.906;-9.586;-0.124;-1.856;-9.626;0.241;-0.053;0.032;-0.338;0.005;0.056;-0.001;-0.1;-10.0;28.0;49.6;3582;2018-04-16 22:26:09:847
-1.944;-9.57;-0.075;-1.856;-9.627;0.234;-0.098;0.044;-0.288;-0.013;0.086;-0.007;-0.1;-10.0;28.0;49.6;3593;2018-04-16 22:26:09:858
-1.973;-9.572;-0.016;-1.856;-9.627;0.234;-0.098;0.044;-0.288;-0.032;0.111;-0.012;0.0;-10.0;28.0;49.6;3603;2018-04-16 22:26:09:868
-2.073;-9.513;0.043;-1.856;-9.627;0.218;-0.175;0.081;-0.212;-0.043;0.144;-0.016;0.0;-10.0;28.1;49.6;3612;2018-04-16 22:26:09:877
-2.073;-9.513;0.043;-1.856;-9.627;0.218;-0.175;0.081;-0.212;-0.046;0.15;-0.013;0.0;-10.0;28.1;49.6;3622;2018-04-16 22:26:09:887
-2.144;-9.451;0.083;-1.858;-9.627;0.202;-0.286;0.176;-0.119;-0.046;0.153;-0.01;0.0;-10.0;28.2;49.6;3632;2018-04-16 22:26:09:897
-2.144;-9.451;0.083;-1.858;-9.627;0.202;-0.286;0.176;-0.119;-0.046;0.154;-0.006;0.0;-10.0;28.2;49.8;3642;2018-04-16 22:26:09:907
-2.181;-9.438;0.145;-1.861;-9.627;0.186;-0.33;0.18;-0.039;-0.045;0.147;-0.005;-0.1;-10.0;28.1;49.8;3652;2018-04-16 22:26:09:917
-2.188;-9.468;0.158;-1.861;-9.627;0.186;-0.33;0.18;-0.039;-0.039;0.133;0.0;-0.1;-10.0;28.1;49.8;3662;2018-04-16 22:26:09:927
-2.161;-9.509;0.159;-1.865;-9.626;0.174;-0.296;0.117;-0.015;-0.027;0.108;0.005;-0.1;-10.0;28.2;49.8;3672;2018-04-16 22:26:09:937
-2.107;-9.511;0.153;-1.865;-9.626;0.174;-0.296;0.117;-0.015;-0.015;0.076;0.005;-0.1;-10.0;28.2;49.8;3682;2018-04-16 22:26:09:947
-2.107;-9.511;0.153;-1.87;-9.625;0.168;-0.22;0.118;-0.018;-0.015;0.076;0.005;-0.1;-10.0;28.2;49.8;3692;2018-04-16 22:26:09:957
-2.067;-9.497;0.122;-1.87;-9.625;0.168;-0.22;0.118;-0.018;-0.001;0.038;0.005;-0.1;-10.0;28.2;49.8;3702;2018-04-16 22:26:09:967
-2.055;-9.504;0.102;-1.875;-9.624;0.169;-0.18;0.12;-0.068;0.018;-0.022;0.004;-0.1;-10.0;28.2;49.8;3712;2018-04-16 22:26:09:977
-2.055;-9.504;0.067;-1.875;-9.624;0.169;-0.18;0.12;-0.068;0.035;-0.088;0.005;-0.1;-10.0;28.2;49.8;3722;2018-04-16 22:26:09:987
-2.075;-9.491;0.067;-1.88;-9.623;0.176;-0.193;0.124;-0.13;0.035;-0.088;0.005;-0.1;-10.0;28.2;49.8;3732;2018-04-16 22:26:09:997
-2.095;-9.495;0.043;-1.88;-9.623;0.176;-0.193;0.124;-0.13;0.038;-0.108;0.001;-0.1;-9.9;28.3;49.8;3742;2018-04-16 22:26:10:007
-2.152;-9.491;0.042;-1.886;-9.622;0.184;-0.267;0.131;-0.143;0.039;-0.127;0.004;-0.1;-9.9;28.3;49.8;3752;2018-04-16 22:26:10:017
-2.17;-9.503;0.04;-1.886;-9.622;0.184;-0.267;0.131;-0.143;0.035;-0.125;0.005;-0.1;-9.9;28.4;49.8;3764;2018-04-16 22:26:10:029
-2.17;-9.503;0.04;-1.891;-9.621;0.192;-0.276;0.114;-0.163;0.027;-0.109;0.01;-0.1;-9.9;28.4;49.8;3773;2018-04-16 22:26:10:038
-2.162;-9.503;0.041;-1.891;-9.621;0.192;-0.276;0.114;-0.163;0.027;-0.109;0.01;-0.1;-9.9;28.4;49.8;3783;2018-04-16 22:26:10:048
-2.138;-9.495;0.043;-1.897;-9.619;0.194;-0.241;0.124;-0.151;0.012;-0.068;0.011;-0.1;-9.9;28.4;49.8;3792;2018-04-16 22:26:10:057
-2.138;-9.495;0.043;-1.897;-9.619;0.194;-0.241;0.124;-0.151;0.007;-0.034;0.012;-0.1;-9.9;28.4;49.8;3802;2018-04-16 22:26:10:067
-2.096;-9.499;0.045;-1.904;-9.618;0.191;-0.192;0.129;-0.13;0.0;0.0;0.015;-0.1;-9.9;28.4;49.8;3812;2018-04-16 22:26:10:077
-2.087;-9.483;0.072;-1.904;-9.618;0.191;-0.192;0.129;-0.13;-0.002;0.042;0.012;-0.1;-10.0;28.4;49.8;3822;2018-04-16 22:26:10:087
-2.087;-9.483;0.072;-1.907;-9.618;0.189;-0.18;0.134;-0.117;-0.002;0.042;0.012;-0.1;-10.0;28.4;49.8;3832;2018-04-16 22:26:10:097
-2.045;-9.547;0.085;-1.911;-9.617;0.181;-0.133;0.07;-0.096;-0.009;0.128;0.005;-0.2;-10.0;28.4;49.8;3842;2018-04-16 22:26:10:107
-2.051;-9.53;0.063;-1.911;-9.617;0.181;-0.133;0.07;-0.096;-0.004;0.144;0.001;-0.2;-10.0;28.4;49.8;3852;2018-04-16 22:26:10:117
-2.054;-9.529;0.049;-1.914;-9.617;0.173;-0.142;0.084;-0.122;-0.002;0.138;-0.001;-0.2;-10.0;28.2;49.8;3862;2018-04-16 22:26:10:127
-2.054;-9.529;0.049;-1.914;-9.617;0.173;-0.142;0.084;-0.122;-0.002;0.138;-0.001;-0.2;-10.0;28.2;49.8;3872;2018-04-16 22:26:10:137
-2.084;-9.542;0.043;-1.915;-9.616;0.168;-0.169;0.074;-0.124;0.002;0.105;-0.002;-0.2;-10.0;28.3;49.8;3882;2018-04-16 22:26:10:147
-2.121;-9.511;0.043;-1.915;-9.616;0.168;-0.169;0.074;-0.124;-0.001;0.079;-0.005;-0.2;-10.0;28.3;49.8;3892;2018-04-16 22:26:10:157
-2.121;-9.511;0.043;-1.917;-9.616;0.163;-0.217;0.112;-0.11;-0.001;0.079;-0.005;-0.2;-10.0;28.3;49.8;3901;2018-04-16 22:26:10:166
-2.15;-9.463;0.057;-1.917;-9.616;0.163;-0.217;0.112;-0.11;-0.009;0.037;-0.001;-0.3;-9.9;28.2;49.8;3911;2018-04-16 22:26:10:176
-2.148;-9.464;0.079;-1.921;-9.615;0.159;-0.226;0.151;-0.08;-0.004;-0.011;0.001;-0.3;-9.9;28.2;49.8;3922;2018-04-16 22:26:10:187
-2.125;-9.495;0.114;-1.921;-9.615;0.159;-0.226;0.151;-0.08;-0.002;-0.035;0.002;-0.3;-9.9;28.1;49.8;3932;2018-04-16 22:26:10:197
-2.125;-9.495;0.114;-1.926;-9.614;0.159;-0.197;0.109;-0.041;-0.004;-0.053;0.002;-0.3;-9.8;28.2;49.8;3942;2018-04-16 22:26:10:207
-2.114;-9.495;0.144;-1.926;-9.614;0.159;-0.197;0.109;-0.041;-0.007;-0.046;0.005;-0.3;-9.8;28.2;49.8;3952;2018-04-16 22:26:10:217
-2.113;-9.475;0.142;-1.931;-9.613;0.159;-0.173;0.117;-0.017;-0.01;-0.037;0.001;-0.3;-9.8;28.2;49.8;3962;2018-04-16 22:26:10:227
-2.113;-9.475;0.142;-1.931;-9.613;0.159;-0.173;0.117;-0.017;-0.01;-0.037;0.001;-0.3;-9.8;28.2;49.8;3971;2018-04-16 22:26:10:236
-2.09;-9.468;0.141;-1.935;-9.613;0.159;-0.155;0.145;-0.018;-0.007;-0.034;0.001;-0.3;-9.8;28.2;49.16;3981;2018-04-16 22:26:10:246
-2.107;-9.483;0.15;-1.935;-9.613;0.159;-0.155;0.145;-0.018;-0.002;-0.021;0.0;-0.3;-9.8;28.3;49.16;3992;2018-04-16 22:26:10:257
-2.107;-9.483;0.15;-1.938;-9.612;0.159;-0.171;0.127;-0.017;-0.002;-0.021;0.0;-0.3;-9.8;28.3;49.16;4001;2018-04-16 22:26:10:266
-2.125;-9.535;0.123;-1.938;-9.612;0.159;-0.171;0.127;-0.017;0.009;-0.002;-0.004;-0.2;-9.8;28.3;49.16;4012;2018-04-16 22:26:10:277
-2.133;-9.546;0.133;-1.941;-9.611;0.16;-0.185;0.066;-0.034;0.011;0.01;-0.005;-0.2;-9.8;28.3;49.16;4022;2018-04-16 22:26:10:287
-2.133;-9.546;0.133;-1.941;-9.611;0.16;-0.185;0.066;-0.034;0.006;0.026;-0.005;-0.2;-9.8;28.3;49.16;4032;2018-04-16 22:26:10:297
-2.152;-9.537;0.119;-1.943;-9.611;0.159;-0.209;0.074;-0.04;0.004;0.039;-0.007;-0.2;-9.8;28.3;49.16;4042;2018-04-16 22:26:10:307
-2.152;-9.537;0.119;-1.943;-9.611;0.159;-0.209;0.074;-0.04;0.004;0.04;-0.004;-0.3;-9.8;28.3;49.16;4052;2018-04-16 22:26:10:317
-2.174;-9.513;0.126;-1.946;-9.61;0.157;-0.229;0.117;-0.034;0.004;0.04;-0.004;-0.3;-9.8;28.3;49.16;4061;2018-04-16 22:26:10:326
-2.167;-9.464;0.133;-1.946;-9.61;0.157;-0.229;0.117;-0.034;0.006;0.028;-0.01;-0.3;-9.8;28.3;49.16;4072;2018-04-16 22:26:10:337
-2.167;-9.464;0.133;-1.949;-9.61;0.157;-0.23;0.177;-0.048;0.006;0.028;-0.01;-0.3;-9.8;28.3;49.16;4082;2018-04-16 22:26:10:347
-2.174;-9.43;0.113;-1.949;-9.61;0.157;-0.23;0.177;-0.048;0.005;0.027;-0.005;-0.3;-9.8;28.3;49.16;4092;2018-04-16 22:26:10:357
-2.152;-9.457;0.107;-1.952;-9.609;0.156;-0.2;0.152;-0.049;0.002;0.02;-0.006;-0.3;-9.8;28.3;49.16;4102;2018-04-16 22:26:10:367
-2.152;-9.457;0.107;-1.952;-9.609;0.156;-0.2;0.152;-0.049;0.0;0.021;-0.007;-0.3;-9.8;28.3;49.16;4112;2018-04-16 22:26:10:377
-2.125;-9.548;0.14;-1.954;-9.609;0.153;-0.17;0.061;-0.013;0.0;0.021;-0.007;-0.3;-9.8;28.3;49.16;4122;2018-04-16 22:26:10:387
-2.125;-9.548;0.14;-1.954;-9.609;0.153;-0.17;0.061;-0.013;-0.012;0.026;-0.011;-0.3;-9.8;28.3;49.16;4132;2018-04-16 22:26:10:397
-2.161;-9.571;0.146;-1.955;-9.609;0.15;-0.199;0.034;-0.002;-0.011;0.024;-0.012;-0.3;-9.8;28.3;49.16;4142;2018-04-16 22:26:10:407
-2.152;-9.579;0.12;-1.955;-9.609;0.15;-0.199;0.034;-0.002;-0.002;0.012;-0.013;-0.3;-9.8;28.3;49.16;4152;2018-04-16 22:26:10:417
-2.152;-9.579;0.12;-1.954;-9.609;0.149;-0.208;0.063;-0.051;-0.002;0.012;-0.013;-0.3;-9.8;28.4;49.16;4162;2018-04-16 22:26:10:427
-2.167;-9.533;0.093;-1.954;-9.609;0.149;-0.219;0.113;-0.066;0.005;-0.005;-0.015;-0.3;-9.8;28.4;49.16;4172;2018-04-16 22:26:10:437
-2.169;-9.459;0.065;-1.954;-9.609;0.149;-0.219;0.113;-0.066;0.004;-0.013;-0.012;-0.3;-9.8;28.4;49.16;4182;2018-04-16 22:26:10:447
-2.169;-9.459;0.065;-1.955;-9.609;0.149;-0.242;0.155;-0.092;-0.001;-0.023;-0.016;-0.3;-9.8;28.4;49.16;4192;2018-04-16 22:26:10:457
-2.21;-9.446;0.063;-1.955;-9.609;0.149;-0.242;0.155;-0.092;-0.007;-0.024;-0.015;-0.3;-9.8;28.4;49.16;4202;2018-04-16 22:26:10:467
-2.21;-9.433;0.095;-1.957;-9.608;0.145;-0.272;0.175;-0.051;-0.017;-0.015;-0.015;-0.3;-9.8;28.4;49.16;4212;2018-04-16 22:26:10:477
-2.229;-9.433;0.095;-1.957;-9.608;0.145;-0.272;0.175;-0.051;-0.017;-0.015;-0.015;-0.3;-9.8;28.5;49.16;4222;2018-04-16 22:26:10:487
-2.236;-9.442;0.145;-1.957;-9.608;0.145;-0.272;0.175;-0.051;-0.032;0.015;-0.01;-0.3;-9.9;28.6;49.16;4232;2018-04-16 22:26:10:497
-2.216;-9.438;0.177;-1.962;-9.607;0.138;-0.264;0.187;0.014;-0.033;0.037;-0.007;-0.3;-9.9;28.6;49.16;4242;2018-04-16 22:26:10:507
-2.216;-9.438;0.177;-1.966;-9.607;0.132;-0.227;0.15;0.031;-0.02;0.044;-0.004;-0.3;-9.9;28.5;49.16;4252;2018-04-16 22:26:10:517
-2.216;-9.438;0.177;-1.966;-9.607;0.132;-0.227;0.15;0.031;-0.02;0.044;-0.004;-0.3;-9.9;28.5;49.16;4262;2018-04-16 22:26:10:527
-2.176;-9.45;0.145;-1.968;-9.606;0.131;-0.208;0.156;0.014;-0.016;0.045;-0.004;-0.3;-9.9;28.6;49.16;4271;2018-04-16 22:26:10:536
-2.101;-9.5;0.085;-1.971;-9.606;0.128;-0.13;0.106;-0.043;0.0;0.027;-0.002;-0.3;-10.0;28.6;49.16;4282;2018-04-16 22:26:10:547
-2.101;-9.5;0.085;-1.971;-9.606;0.128;-0.13;0.106;-0.043;-0.001;0.022;-0.002;-0.3;-10.0;28.6;49.16;4292;2018-04-16 22:26:10:557
-2.102;-9.53;0.08;-1.972;-9.605;0.126;-0.125;0.068;-0.041;-0.001;0.022;-0.002;-0.3;-10.0;28.6;49.52;4302;2018-04-16 22:26:10:567
-2.108;-9.538;0.085;-1.972;-9.605;0.126;-0.125;0.068;-0.041;-0.006;0.006;-0.005;-0.3;-10.0;28.6;49.52;4312;2018-04-16 22:26:10:577
-2.108;-9.538;0.085;-1.973;-9.605;0.125;-0.144;0.089;-0.024;-0.002;0.001;-0.009;-0.3;-10.0;28.6;49.52;4322;2018-04-16 22:26:10:587
-2.119;-9.519;0.105;-1.973;-9.605;0.125;-0.144;0.089;-0.024;-0.002;0.0;-0.007;-0.3;-10.0;28.6;49.52;4332;2018-04-16 22:26:10:597
-2.119;-9.519;0.105;-1.973;-9.605;0.125;-0.144;0.089;-0.024;-0.002;0.0;-0.007;-0.3;-10.0;28.6;49.52;4342;2018-04-16 22:26:10:607
-2.127;-9.536;0.097;-1.974;-9.605;0.124;-0.153;0.069;-0.027;-0.001;0.002;-0.007;-0.3;-9.9;28.6;49.52;4352;2018-04-16 22:26:10:617
-2.088;-9.501;0.063;-1.974;-9.605;0.124;-0.113;0.104;-0.06;0.009;0.007;-0.01;-0.3;-9.9;28.6;49.52;4362;2018-04-16 22:26:10:627
-2.088;-9.501;0.063;-1.974;-9.605;0.124;-0.113;0.104;-0.06;0.009;0.009;-0.01;-0.3;-10.0;28.6;49.52;4372;2018-04-16 22:26:10:637
-2.071;-9.491;0.047;-1.974;-9.605;0.123;-0.092;0.104;-0.08;0.002;0.016;-0.015;-0.3;-9.9;28.6;49.52;4382;2018-04-16 22:26:10:647
-2.069;-9.477;0.047;-1.974;-9.605;0.123;-0.092;0.104;-0.08;-0.005;0.027;-0.013;-0.3;-9.9;28.6;49.52;4392;2018-04-16 22:26:10:657
-2.069;-9.477;0.047;-1.974;-9.605;0.12;-0.094;0.134;-0.064;-0.005;0.027;-0.013;-0.3;-9.9;28.6;49.52;4402;2018-04-16 22:26:10:667
-2.084;-9.489;0.062;-1.974;-9.605;0.12;-0.094;0.134;-0.064;-0.009;0.031;-0.017;-0.3;-9.9;28.7;49.52;4412;2018-04-16 22:26:10:677
-2.081;-9.5;0.071;-1.972;-9.606;0.116;-0.109;0.105;-0.045;-0.01;0.035;-0.021;-0.3;-9.9;28.7;49.52;4422;2018-04-16 22:26:10:687
-2.087;-9.489;0.075;-1.971;-9.606;0.114;-0.116;0.116;-0.039;-0.009;0.038;-0.02;-0.2;-9.8;28.7;49.52;4433;2018-04-16 22:26:10:698
-2.087;-9.489;0.075;-1.971;-9.606;0.114;-0.116;0.116;-0.039;-0.001;0.038;-0.023;-0.2;-9.8;28.7;49.52;4443;2018-04-16 22:26:10:708
-2.122;-9.476;0.06;-1.97;-9.606;0.112;-0.161;0.123;-0.062;-0.001;0.038;-0.023;-0.3;-9.8;28.7;49.52;4451;2018-04-16 22:26:10:716
-2.15;-9.5;0.045;-1.97;-9.606;0.112;-0.161;0.123;-0.062;0.002;0.017;-0.022;-0.2;-9.8;28.7;49.52;4462;2018-04-16 22:26:10:727
-2.15;-9.5;0.045;-1.969;-9.606;0.11;-0.192;0.105;-0.068;0.002;0.017;-0.022;-0.2;-9.8;28.7;49.52;4472;2018-04-16 22:26:10:737
-2.168;-9.493;0.044;-1.969;-9.606;0.11;-0.192;0.105;-0.068;-0.005;0.002;-0.017;-0.3;-9.8;28.7;49.52;4482;2018-04-16 22:26:10:747
-2.144;-9.501;0.045;-1.969;-9.606;0.108;-0.175;0.105;-0.062;-0.005;0.002;-0.017;-0.3;-9.8;28.7;49.52;4492;2018-04-16 22:26:10:757
-2.144;-9.501;0.045;-1.969;-9.606;0.108;-0.175;0.105;-0.062;-0.009;0.0;-0.013;-0.3;-9.8;28.7;49.52;4502;2018-04-16 22:26:10:767
-2.134;-9.477;0.077;-1.97;-9.606;0.105;-0.148;0.126;-0.035;-0.01;-0.01;-0.009;-0.3;-9.7;28.6;49.52;4513;2018-04-16 22:26:10:778
-2.109;-9.491;0.079;-1.97;-9.606;0.105;-0.148;0.126;-0.035;-0.01;-0.01;-0.009;-0.3;-9.7;28.6;49.52;4521;2018-04-16 22:26:10:786
-2.109;-9.491;0.079;-1.97;-9.606;0.105;-0.119;0.105;0.005;-0.005;-0.016;-0.009;-0.3;-9.7;28.7;49.52;4533;2018-04-16 22:26:10:798
-2.091;-9.516;0.097;-1.97;-9.606;0.105;-0.119;0.105;0.005;0.0;-0.013;-0.012;-0.3;-9.7;28.7;49.52;4542;2018-04-16 22:26:10:807
-2.091;-9.516;0.097;-1.97;-9.606;0.106;-0.107;0.073;-0.015;0.007;-0.012;-0.012;-0.3;-9.7;28.7;49.52;4552;2018-04-16 22:26:10:817
-2.084;-9.525;0.092;-1.97;-9.606;0.106;-0.107;0.073;-0.015;0.007;-0.012;-0.012;-0.2;-9.6;28.7;49.52;4562;2018-04-16 22:26:10:827
-2.064;-9.549;0.078;-1.968;-9.607;0.108;-0.09;0.072;-0.039;0.017;-0.011;-0.017;-0.3;-9.6;28.6;49.52;4572;2018-04-16 22:26:10:837
-2.053;-9.542;0.053;-1.968;-9.607;0.108;-0.09;0.072;-0.039;0.02;-0.006;-0.023;-0.3;-9.6;28.6;49.52;4582;2018-04-16 22:26:10:847
-2.113;-9.523;0.043;-1.965;-9.607;0.111;-0.127;0.078;-0.072;0.015;-0.002;-0.023;-0.3;-9.6;28.6;49.52;4592;2018-04-16 22:26:10:857
-2.113;-9.523;0.043;-1.965;-9.607;0.111;-0.127;0.078;-0.072;0.009;0.005;-0.023;-0.3;-9.6;28.6;49.52;4602;2018-04-16 22:26:10:867
-2.133;-9.494;0.032;-1.963;-9.608;0.111;-0.171;0.113;-0.079;0.002;0.005;-0.021;-0.3;-9.6;28.6;49.52;4612;2018-04-16 22:26:10:877
-2.133;-9.494;0.032;-1.963;-9.608;0.111;-0.171;0.113;-0.079;0.002;0.005;-0.021;-0.3;-9.6;28.6;49.46;4621;2018-04-16 22:26:10:886
-2.15;-9.487;0.043;-1.962;-9.608;0.109;-0.189;0.111;-0.067;-0.009;0.011;-0.017;-0.4;-9.6;28.5;49.46;4632;2018-04-16 22:26:10:897
-2.127;-9.492;0.043;-1.962;-9.608;0.109;-0.189;0.111;-0.067;-0.009;0.011;-0.017;-0.4;-9.6;28.5;49.46;4641;2018-04-16 22:26:10:906
-2.127;-9.492;0.043;-1.961;-9.608;0.105;-0.124;0.085;-0.062;-0.01;0.018;-0.013;-0.3;-9.6;28.4;49.46;4651;2018-04-16 22:26:10:916
-2.075;-9.54;0.043;-1.961;-9.608;0.105;-0.124;0.085;-0.062;-0.011;0.024;-0.016;-0.3;-9.6;28.4;49.46;4661;2018-04-16 22:26:10:926
-2.055;-9.537;0.066;-1.959;-9.608;0.101;-0.096;0.071;-0.035;-0.011;0.026;-0.016;-0.3;-9.5;28.4;49.46;4671;2018-04-16 22:26:10:936
-2.055;-9.537;0.066;-1.959;-9.608;0.101;-0.096;0.071;-0.035;-0.011;0.026;-0.016;-0.3;-9.5;28.4;49.46;4681;2018-04-16 22:26:10:946
-2.046;-9.509;0.059;-1.957;-9.609;0.098;-0.09;0.113;-0.031;-0.006;0.023;-0.017;-0.3;-9.5;28.4;49.46;4691;2018-04-16 22:26:10:956
-2.036;-9.5;0.05;-1.957;-9.609;0.098;-0.09;0.113;-0.031;-0.006;0.018;-0.021;-0.3;-9.5;28.4;49.46;4701;2018-04-16 22:26:10:966
-2.036;-9.5;0.05;-1.955;-9.609;0.095;-0.076;0.118;-0.052;-0.004;0.012;-0.02;-0.4;-9.6;28.2;49.46;4712;2018-04-16 22:26:10:977
-2.016;-9.501;0.047;-1.955;-9.609;0.095;-0.076;0.118;-0.052;-0.002;0.007;-0.02;-0.4;-9.6;28.2;49.46;4722;2018-04-16 22:26:10:987
-2.015;-9.504;0.045;-1.952;-9.61;0.094;-0.043;0.111;-0.051;-0.006;-0.001;-0.023;-0.4;-9.7;28.2;49.46;4732;2018-04-16 22:26:10:997
-2.011;-9.491;0.043;-1.952;-9.61;0.094;-0.043;0.111;-0.051;-0.006;-0.001;-0.023;-0.4;-9.7;28.2;49.46;4742;2018-04-16 22:26:11:007
-2.011;-9.491;0.043;-1.948;-9.611;0.091;-0.054;0.112;-0.047;-0.007;-0.015;-0.027;-0.4;-9.7;28.1;49.46;4751;2018-04-16 22:26:11:016
-2.005;-9.504;0.057;-1.948;-9.611;0.091;-0.054;0.112;-0.047;-0.015;-0.021;-0.028;-0.4;-9.7;28.1;49.46;4762;2018-04-16 22:26:11:027
-2.055;-9.485;0.095;-1.943;-9.612;0.089;-0.112;0.127;0.006;-0.016;-0.023;-0.033;-0.4;-9.7;28.1;49.46;4771;2018-04-16 22:26:11:036
-2.055;-9.485;0.095;-1.943;-9.612;0.089;-0.112;0.127;0.006;-0.016;-0.023;-0.033;-0.4;-9.7;28.1;49.46;4782;2018-04-16 22:26:11:047
-2.103;-9.47;0.099;-1.94;-9.612;0.088;-0.17;0.14;0.033;-0.012;-0.027;-0.032;-0.4;-9.7;28.1;49.46;4793;2018-04-16 22:26:11:058
-2.13;-9.467;0.127;-1.94;-9.612;0.088;-0.17;0.14;0.033;0.0;-0.024;-0.029;-0.4;-9.7;28.1;49.46;4802;2018-04-16 22:26:11:067
-2.13;-9.467;0.127;-1.938;-9.613;0.09;-0.205;0.156;0.036;0.005;-0.021;-0.026;-0.4;-9.7;28.1;49.46;4812;2018-04-16 22:26:11:077
-2.152;-9.454;0.102;-1.938;-9.613;0.091;-0.22;0.164;0.002;0.012;-0.013;-0.022;-0.4;-9.7;28.1;49.46;4822;2018-04-16 22:26:11:087
-2.157;-9.433;0.083;-1.938;-9.613;0.091;-0.22;0.164;0.002;0.016;-0.007;-0.018;-0.4;-9.6;28.0;49.46;4832;2018-04-16 22:26:11:097
-2.087;-9.427;0.084;-1.938;-9.613;0.094;-0.149;0.186;-0.011;0.016;-0.007;-0.018;-0.4;-9.6;28.0;49.46;4842;2018-04-16 22:26:11:107
-2.087;-9.427;0.084;-1.938;-9.613;0.094;-0.149;0.186;-0.011;0.02;0.0;-0.012;-0.4;-9.6;28.0;49.46;4852;2018-04-16 22:26:11:117
-2.03;-9.424;0.085;-1.937;-9.613;0.098;-0.082;0.17;-0.01;0.02;0.009;-0.012;-0.4;-9.6;28.0;49.46;4863;2018-04-16 22:26:11:128
-2.024;-9.444;0.101;-1.937;-9.613;0.098;-0.082;0.17;-0.01;0.018;0.012;-0.013;-0.4;-9.6;28.0;49.46;4872;2018-04-16 22:26:11:137
-2.052;-9.488;0.129;-1.936;-9.613;0.102;-0.092;0.151;0.016;0.022;0.012;-0.015;-0.4;-9.6;28.2;49.46;4882;2018-04-16 22:26:11:147
-2.052;-9.488;0.129;-1.936;-9.613;0.102;-0.092;0.151;0.016;0.04;0.006;-0.022;-0.4;-9.6;28.2;49.46;4892;2018-04-16 22:26:11:157
-2.148;-9.499;0.119;-1.934;-9.613;0.111;-0.214;0.114;0.008;0.056;-0.002;-0.027;-0.4;-9.6;28.3;49.46;4903;2018-04-16 22:26:11:168
-2.148;-9.499;0.119;-1.934;-9.613;0.111;-0.214;0.114;0.008;0.077;-0.021;-0.024;-0.4;-9.6;28.3;49.46;4913;2018-04-16 22:26:11:178
-2.261;-9.513;0.043;-1.932;-9.614;0.129;-0.329;0.1;-0.086;0.077;-0.021;-0.024;-0.4;-9.6;28.3;49.46;4922;2018-04-16 22:26:11:187
-2.272;-9.483;-0.063;-1.932;-9.613;0.147;-0.34;0.11;-0.144;0.126;-0.093;-0.02;-0.4;-9.6;28.3;49.46;4932;2018-04-16 22:26:11:197
-2.272;-9.483;-0.063;-1.932;-9.613;0.147;-0.34;0.11;-0.144;0.183;-0.183;-0.011;-0.3;-9.6;28.4;49.46;4942;2018-04-16 22:26:11:207
-2.284;-9.516;-0.214;-1.934;-9.612;0.205;-0.35;0.096;-0.42;0.298;-0.373;-0.001;-0.3;-9.6;28.4;49.46;4951;2018-04-16 22:26:11:216
-2.284;-9.516;-0.214;-1.934;-9.612;0.205;-0.35;0.096;-0.42;0.298;-0.373;-0.001;-0.3;-9.6;28.3;49.73;4962;2018-04-16 22:26:11:227
-2.286;-9.6;-0.263;-1.936;-9.609;0.285;-0.345;0.001;-0.571;0.349;-0.476;0.011;-0.3;-9.6;28.3;49.73;4972;2018-04-16 22:26:11:237
-2.261;-9.621;-0.321;-1.936;-9.609;0.285;-0.345;0.001;-0.571;0.321;-0.458;0.017;-0.3;-9.5;28.2;49.73;4982;2018-04-16 22:26:11:247
-2.251;-9.571;-0.265;-1.94;-9.607;0.341;-0.301;0.046;-0.65;0.171;-0.283;0.016;-0.2;-9.5;28.3;49.73;4992;2018-04-16 22:26:11:257
-2.251;-9.571;-0.265;-1.94;-9.607;0.341;-0.301;0.046;-0.65;0.171;-0.283;0.016;-0.2;-9.5;28.3;49.73;5002;2018-04-16 22:26:11:267
-2.241;-9.598;-0.175;-1.944;-9.605;0.357;-0.281;-0.01;-0.519;0.005;-0.031;0.011;-0.2;-9.5;28.2;49.73;5012;2018-04-16 22:26:11:277
-2.189;-9.618;-0.109;-1.944;-9.605;0.357;-0.281;-0.01;-0.519;0.005;-0.031;0.011;-0.2;-9.5;28.2;49.73;5021;2018-04-16 22:26:11:286
-2.189;-9.618;-0.109;-1.946;-9.606;0.345;-0.226;0.005;-0.322;-0.042;0.073;-0.012;-0.2;-9.5;28.3;49.73;5032;2018-04-16 22:26:11:297
-2.085;-9.562;0.072;-1.946;-9.606;0.345;-0.226;0.005;-0.322;-0.042;0.073;-0.012;-0.2;-9.5;28.3;49.73;5042;2018-04-16 22:26:11:307
-1.929;-9.482;0.2;-1.941;-9.607;0.334;0.013;0.125;-0.134;-0.017;0.194;-0.05;-0.1;-9.4;28.4;49.73;5052;2018-04-16 22:26:11:317
-1.929;-9.339;0.341;-1.941;-9.607;0.334;0.013;0.125;-0.134;-0.017;0.26;-0.076;0.0;-9.4;28.3;49.73;5062;2018-04-16 22:26:11:327
-1.812;-9.339;0.341;-1.928;-9.61;0.32;0.151;0.335;0.046;-0.021;0.336;-0.104;0.0;-9.4;28.3;49.73;5072;2018-04-16 22:26:11:337
-1.81;-9.226;0.438;-1.919;-9.612;0.311;0.109;0.386;0.127;-0.021;0.336;-0.104;0.0;-9.4;28.3;49.73;5082;2018-04-16 22:26:11:347
-1.81;-9.226;0.438;-1.919;-9.612;0.311;0.109;0.386;0.127;-0.027;0.419;-0.12;0.0;-9.4;28.3;49.73;5092;2018-04-16 22:26:11:357
-1.81;-9.226;0.438;-1.919;-9.612;0.311;0.109;0.386;0.127;-0.027;0.419;-0.12;0.0;-9.4;28.3;49.73;5102;2018-04-16 22:26:11:367
-1.818;-9.216;0.432;-1.897;-9.617;0.29;0.079;0.401;0.142;-0.016;0.522;-0.127;0.0;-9.4;28.3;49.73;5112;2018-04-16 22:26:11:377
-1.799;-9.372;0.294;-1.874;-9.622;0.281;0.065;0.204;-0.013;0.092;0.494;-0.133;0.0;-9.5;28.3;49.73;5123;2018-04-16 22:26:11:388
-1.742;-9.504;0.153;-1.86;-9.624;0.289;0.118;0.12;-0.136;0.165;0.417;-0.142;0.0;-9.5;28.3;49.73;5132;2018-04-16 22:26:11:397
-1.742;-9.504;0.153;-1.86;-9.624;0.289;0.118;0.12;-0.136;0.165;0.417;-0.142;0.0;-9.4;28.3;49.73;5142;2018-04-16 22:26:11:407
-1.742;-9.576;0.008;-1.83;-9.629;0.313;0.079;0.074;-0.35;0.178;0.32;-0.165;0.0;-9.4;28.2;49.73;5152;2018-04-16 22:26:11:417
-1.751;-9.488;-0.171;-1.83;-9.629;0.313;0.079;0.074;-0.35;0.178;0.32;-0.165;0.0;-9.4;28.2;49.73;5162;2018-04-16 22:26:11:427
-1.826;-9.504;-0.174;-1.801;-9.634;0.324;-0.025;0.131;-0.498;0.148;0.298;-0.16;0.0;-9.3;28.2;49.73;5172;2018-04-16 22:26:11:437
-1.973;-9.5;-0.132;-1.801;-9.634;0.324;-0.025;0.131;-0.498;0.07;0.299;-0.139;0.0;-9.3;28.2;49.73;5183;2018-04-16 22:26:11:448
-2.181;-9.358;0.016;-1.78;-9.639;0.316;-0.258;0.159;-0.432;0.015;0.32;-0.122;0.0;-9.3;28.2;49.73;5194;2018-04-16 22:26:11:459
-2.181;-9.358;0.016;-1.78;-9.639;0.316;-0.258;0.159;-0.432;0.015;0.32;-0.122;0.0;-9.3;28.2;49.73;5203;2018-04-16 22:26:11:468
-2.291;-9.2;0.133;-1.771;-9.641;0.293;-0.52;0.441;-0.16;-0.046;0.335;-0.083;-0.1;-9.3;28.2;49.73;5212;2018-04-16 22:26:11:477
-2.291;-9.2;0.133;-1.771;-9.641;0.293;-0.52;0.441;-0.16;-0.067;0.363;-0.035;-0.1;-9.3;28.2;49.73;5221;2018-04-16 22:26:11:486
-2.506;-8.991;0.335;-1.776;-9.641;0.265;-0.729;0.649;0.07;-0.083;0.392;0.002;-0.1;-9.2;28.1;49.73;5232;2018-04-16 22:26:11:497
-2.506;-8.991;0.335;-1.776;-9.641;0.265;-0.729;0.649;0.07;-0.084;0.403;0.024;-0.2;-9.2;28.2;49.73;5241;2018-04-16 22:26:11:506
-2.562;-8.963;0.326;-1.785;-9.64;0.251;-0.777;0.677;0.075;-0.084;0.403;0.024;-0.2;-9.2;28.2;49.73;5252;2018-04-16 22:26:11:517
-2.496;-9.29;0.109;-1.818;-9.634;0.222;-0.678;0.345;-0.113;-0.075;0.369;0.125;-0.3;-9.2;28.2;49.73;5262;2018-04-16 22:26:11:527
-2.496;-9.29;0.109;-1.818;-9.634;0.222;-0.678;0.345;-0.113;-0.051;0.283;0.175;-0.3;-9.2;28.2;49.73;5271;2018-04-16 22:26:11:536
-2.265;-9.602;-0.114;-1.86;-9.626;0.211;-0.341;-0.061;-0.36;0.002;0.046;0.205;-0.4;-9.1;28.3;50.41;5282;2018-04-16 22:26:11:547
-2.122;-9.779;-0.104;-1.883;-9.622;0.216;-0.24;-0.157;-0.32;0.037;-0.114;0.213;-0.5;-9.0;28.3;50.41;5292;2018-04-16 22:26:11:557
-1.756;-9.79;-0.15;-1.883;-9.622;0.216;-0.24;-0.157;-0.32;0.039;-0.254;0.244;-0.5;-9.0;28.3;50.41;5302;2018-04-16 22:26:11:567
-1.756;-9.79;-0.15;-1.927;-9.613;0.231;0.285;-0.195;-0.402;0.044;-0.327;0.259;-0.6;-9.0;28.4;50.41;5312;2018-04-16 22:26:11:577
-1.403;-9.786;-0.242;-1.927;-9.613;0.231;0.285;-0.195;-0.402;0.044;-0.327;0.259;-0.6;-9.0;28.4;50.41;5321;2018-04-16 22:26:11:586
-1.403;-9.786;-0.242;-1.969;-9.604;0.255;0.794;-0.187;-0.502;0.061;-0.421;0.261;-0.6;-9.0;28.4;50.41;5332;2018-04-16 22:26:11:597
-1.01;-9.776;-0.274;-1.969;-9.604;0.255;0.794;-0.187;-0.502;0.088;-0.506;0.27;-0.7;-8.9;28.4;50.41;5346;2018-04-16 22:26:11:611
-0.885;-9.742;-0.299;-1.986;-9.6;0.27;1.101;-0.142;-0.569;0.097;-0.544;0.271;-0.8;-8.9;28.4;50.41;5362;2018-04-16 22:26:11:627
-0.351;-9.92;-0.297;-1.986;-9.6;0.27;1.101;-0.142;-0.569;0.12;-0.644;0.253;-0.9;-8.8;28.4;50.41;5363;2018-04-16 22:26:11:628
-0.351;-9.92;-0.297;-2.035;-9.587;0.334;1.753;-0.357;-0.618;0.12;-0.644;0.253;-0.9;-8.8;28.4;50.41;5372;2018-04-16 22:26:11:637
-0.193;-9.991;-0.297;-2.035;-9.587;0.334;1.753;-0.357;-0.618;0.115;-0.612;0.209;-0.9;-8.8;28.3;50.41;5382;2018-04-16 22:26:11:647
-0.036;-10.005;-0.261;-2.052;-9.582;0.372;2.016;-0.423;-0.633;0.086;-0.546;0.155;-0.9;-8.8;28.3;50.41;5391;2018-04-16 22:26:11:656
-0.097;-9.82;0.043;-2.052;-9.582;0.372;2.016;-0.423;-0.633;0.011;-0.323;0.005;-1.0;-8.8;28.3;50.41;5402;2018-04-16 22:26:11:667
-0.097;-9.82;0.043;-2.039;-9.584;0.388;1.872;-0.147;-0.245;0.012;-0.183;-0.067;-1.0;-8.6;28.4;50.41;5412;2018-04-16 22:26:11:677
-0.485;-9.535;0.339;-2.039;-9.584;0.388;1.872;-0.147;-0.245;0.012;-0.183;-0.067;-1.0;-8.6;28.4;50.41;5421;2018-04-16 22:26:11:686
-0.485;-9.535;0.339;-1.998;-9.593;0.4;0.999;0.128;0.12;0.045;-0.054;-0.154;-1.0;-8.6;28.4;50.41;5432;2018-04-16 22:26:11:697
-1.191;-9.348;0.571;-1.998;-9.593;0.4;0.999;0.128;0.12;0.087;0.076;-0.191;-0.9;-8.5;28.5;50.41;5441;2018-04-16 22:26:11:706
-1.392;-9.091;0.493;-1.96;-9.6;0.414;0.567;0.509;0.079;0.114;0.197;-0.188;-0.9;-8.5;28.5;50.41;5452;2018-04-16 22:26:11:717
-1.392;-9.091;0.493;-1.96;-9.6;0.414;0.567;0.509;0.079;0.123;0.28;-0.177;-0.9;-8.5;28.5;50.41;5462;2018-04-16 22:26:11:727
-1.612;-9.096;0.431;-1.929;-9.606;0.429;0.26;0.481;-0.009;0.147;0.329;-0.161;-0.8;-8.5;28.6;50.41;5472;2018-04-16 22:26:11:737
-1.768;-9.231;0.351;-1.929;-9.606;0.429;0.26;0.481;-0.009;0.191;0.315;-0.137;-0.8;-8.5;28.6;50.41;5481;2018-04-16 22:26:11:746
-1.768;-9.231;0.351;-1.907;-9.608;0.459;0.102;0.311;-0.179;0.244;0.272;-0.11;-0.8;-8.5;28.6;50.41;5492;2018-04-16 22:26:11:757
-1.838;-9.339;0.254;-1.907;-9.608;0.459;0.102;0.311;-0.179;0.244;0.272;-0.11;-0.8;-8.4;28.5;50.41;5502;2018-04-16 22:26:11:767
-1.834;-9.372;0.097;-1.895;-9.608;0.51;0.061;0.236;-0.413;0.324;0.199;-0.076;-0.8;-8.4;28.5;50.41;5512;2018-04-16 22:26:11:777
-1.792;-9.392;0.024;-1.892;-9.608;0.534;0.1;0.215;-0.51;0.346;0.161;-0.049;-0.7;-8.4;28.4;50.41;5523;2018-04-16 22:26:11:788
-1.792;-9.392;0.024;-1.892;-9.608;0.534;0.1;0.215;-0.51;0.346;0.161;-0.049;-0.7;-8.4;28.4;50.41;5532;2018-04-16 22:26:11:797
-1.78;-9.495;-0.044;-1.892;-9.606;0.564;0.112;0.11;-0.608;0.332;0.089;0.002;-0.7;-8.3;28.3;50.41;5542;2018-04-16 22:26:11:807
-1.757;-9.787;-0.102;-1.902;-9.601;0.616;0.144;-0.187;-0.718;0.294;-0.054;0.072;-0.7;-8.3;28.3;50.41;5552;2018-04-16 22:26:11:817
-1.845;-9.829;-0.087;-1.902;-9.601;0.616;0.144;-0.187;-0.718;0.296;-0.198;0.11;-0.6;-8.3;28.3;50.41;5562;2018-04-16 22:26:11:827
-1.845;-9.829;-0.087;-1.919;-9.593;0.676;0.076;-0.2;-0.727;0.32;-0.293;0.133;-0.5;-8.2;28.2;50.41;5572;2018-04-16 22:26:11:837
-1.84;-9.711;0.042;-1.919;-9.593;0.676;0.076;-0.2;-0.727;0.347;-0.346;0.143;-0.5;-8.2;28.2;50.41;5583;2018-04-16 22:26:11:848
-1.873;-9.451;0.245;-1.941;-9.583;0.749;0.091;0.07;-0.602;0.362;-0.345;0.148;-0.5;-8.1;28.2;50.41;5593;2018-04-16 22:26:11:858
-1.873;-9.451;0.245;-1.941;-9.583;0.749;0.091;0.07;-0.602;0.362;-0.345;0.148;-0.5;-8.1;28.2;49.94;5602;2018-04-16 22:26:11:867
-1.865;-9.34;0.376;-1.968;-9.572;0.824;0.103;0.232;-0.448;0.365;-0.27;0.16;-0.5;-8.1;28.2;49.94;5612;2018-04-16 22:26:11:877
-1.925;-9.255;0.464;-1.968;-9.572;0.824;0.103;0.232;-0.448;0.337;-0.079;0.183;-0.4;-8.0;28.1;49.94;5622;2018-04-16 22:26:11:887
-1.925;-9.255;0.464;-2.002;-9.559;0.886;0.032;0.285;-0.408;0.342;0.035;0.178;-0.4;-8.0;28.0;49.94;5632;2018-04-16 22:26:11:897
-2.065;-9.29;0.476;-2.002;-9.559;0.886;0.032;0.285;-0.408;0.401;0.103;0.176;-0.4;-8.0;28.0;49.94;5642;2018-04-16 22:26:11:907
-2.065;-9.29;0.476;-2.002;-9.559;0.886;0.032;0.285;-0.408;0.401;0.103;0.176;-0.4;-8.0;28.0;49.94;5651;2018-04-16 22:26:11:916
-2.137;-9.378;0.48;-2.039;-9.544;0.963;-0.098;0.166;-0.483;0.497;0.138;0.176;-0.3;-7.8;27.9;49.94;5662;2018-04-16 22:26:11:927
-2.181;-9.681;0.425;-2.078;-9.525;1.065;-0.103;-0.156;-0.64;0.628;0.246;0.181;-0.3;-7.6;27.9;49.94;5672;2018-04-16 22:26:11:937
-1.991;-9.73;0.294;-2.078;-9.525;1.065;-0.103;-0.156;-0.64;0.617;0.353;0.194;-0.3;-7.6;27.9;49.94;5682;2018-04-16 22:26:11:947
-1.991;-9.73;0.294;-2.124;-9.504;1.156;0.217;-0.195;-0.908;0.596;0.453;0.208;-0.3;-7.4;27.8;49.94;5692;2018-04-16 22:26:11:957
-1.762;-9.73;0.147;-2.124;-9.504;1.156;0.217;-0.195;-0.908;0.596;0.453;0.208;-0.3;-7.4;27.8;49.94;5701;2018-04-16 22:26:11:966
-1.762;-9.73;0.147;-2.175;-9.481;1.243;0.6;-0.246;-1.237;0.615;0.513;0.228;-0.3;-7.4;27.8;49.94;5711;2018-04-16 22:26:11:976
-1.408;-9.649;-0.098;-2.175;-9.481;1.243;0.6;-0.246;-1.237;0.676;0.404;0.23;-0.4;-7.2;27.7;49.94;5722;2018-04-16 22:26:11:987
-1.082;-9.568;-0.314;-2.218;-9.459;1.336;1.136;-0.11;-1.65;0.687;0.321;0.219;-0.5;-7.0;27.5;49.94;5732;2018-04-16 22:26:11:997
-0.892;-9.606;-0.426;-2.234;-9.448;1.381;1.342;-0.157;-1.807;0.687;0.28;0.216;-0.5;-7.0;27.5;49.94;5742;2018-04-16 22:26:12:007
-0.892;-9.606;-0.426;-2.234;-9.448;1.381;1.342;-0.157;-1.807;0.673;0.197;0.202;-0.5;-6.9;27.4;49.94;5752;2018-04-16 22:26:12:017
-0.506;-9.444;-0.572;-2.262;-9.427;1.48;1.866;0.0;-2.137;0.673;0.197;0.202;-0.5;-6.9;27.4;49.94;5762;2018-04-16 22:26:12:027
-0.248;-9.498;-0.758;-2.262;-9.427;1.48;1.866;0.0;-2.137;0.618;0.181;0.143;-0.6;-6.7;27.2;49.94;5772;2018-04-16 22:26:12:037
-0.248;-9.498;-0.758;-2.272;-9.411;1.56;2.071;-0.321;-2.362;0.567;0.221;0.095;-0.7;-6.5;27.1;49.94;5781;2018-04-16 22:26:12:046
-0.195;-9.966;-0.848;-2.272;-9.411;1.56;2.071;-0.321;-2.362;0.567;0.221;0.095;-0.7;-6.5;27.1;49.94;5792;2018-04-16 22:26:12:057
-0.257;-10.841;-0.813;-2.285;-9.399;1.616;2.028;-1.442;-2.429;0.272;0.556;-0.001;-0.8;-6.2;27.0;49.94;5802;2018-04-16 22:26:12:067
-0.257;-10.841;-0.813;-2.285;-9.399;1.616;2.028;-1.442;-2.429;0.272;0.556;-0.001;-0.8;-6.2;27.0;49.94;5812;2018-04-16 22:26:12:077
-0.207;-11.639;-0.876;-2.302;-9.394;1.619;2.151;-2.338;-2.552;0.161;0.677;-0.022;-0.9;-5.8;26.9;49.94;5822;2018-04-16 22:26:12:087
0.066;-11.899;-1.111;-2.302;-9.394;1.619;2.151;-2.338;-2.552;0.161;0.643;-0.056;-0.9;-5.8;26.9;49.94;5831;2018-04-16 22:26:12:096
0.066;-11.899;-1.111;-2.303;-9.394;1.617;2.297;-2.674;-2.87;0.11;0.544;-0.14;-1.0;-5.5;26.8;49.94;5842;2018-04-16 22:26:12:107
-0.095;-12.124;-1.269;-2.303;-9.394;1.617;2.297;-2.674;-2.87;-0.038;0.384;-0.232;-1.0;-5.5;26.8;49.94;5852;2018-04-16 22:26:12:117
-0.425;-11.957;-1.211;-2.264;-9.41;1.58;1.839;-2.547;-2.792;-0.224;0.173;-0.291;-1.2;-5.1;26.8;49.94;5862;2018-04-16 22:26:12:127
-0.425;-11.957;-1.211;-2.264;-9.41;1.58;1.839;-2.547;-2.792;-0.403;-0.054;-0.357;-1.2;-5.1;26.8;49.94;5871;2018-04-16 22:26:12:136
-1.062;-12.118;-0.934;-2.185;-9.442;1.496;0.919;-2.772;-2.374;-0.403;-0.054;-0.357;-1.3;-4.7;26.7;49.94;5882;2018-04-16 22:26:12:147
-1.725;-12.292;-0.769;-2.185;-9.442;1.496;0.919;-2.772;-2.374;-0.634;-0.359;-0.463;-1.3;-4.7;26.7;49.94;5892;2018-04-16 22:26:12:157
-1.725;-12.292;-0.769;-2.074;-9.486;1.37;-0.235;-2.794;-2.065;-0.852;-0.525;-0.54;-1.4;-4.5;26.6;49.94;5901;2018-04-16 22:26:12:166
-2.557;-12.189;-0.675;-2.006;-9.515;1.273;-0.761;-2.494;-1.919;-1.027;-0.519;-0.578;-1.4;-4.5;26.6;49.94;5912;2018-04-16 22:26:12:177
-3.203;-11.564;-0.503;-2.006;-9.515;1.273;-0.761;-2.494;-1.919;-1.027;-0.519;-0.578;-1.6;-4.2;26.5;49.98;5922;2018-04-16 22:26:12:187
-3.203;-11.564;-0.503;-1.887;-9.568;1.033;-1.813;-1.525;-1.437;-1.326;-0.346;-0.591;-1.6;-4.2;26.5;49.98;5931;2018-04-16 22:26:12:196
-3.988;-10.725;-0.4;-1.887;-9.568;1.033;-1.813;-1.525;-1.437;-1.619;-0.018;-0.545;-1.7;-4.0;26.5;49.98;5942;2018-04-16 22:26:12:207
-4.699;-10.149;-0.584;-1.79;-9.617;0.699;-2.908;-0.533;-1.283;-1.797;0.261;-0.494;-1.8;-3.9;26.4;49.98;5952;2018-04-16 22:26:12:217
-5.552;-9.634;-1.124;-1.79;-9.617;0.699;-2.908;-0.533;-1.283;-2.101;0.739;-0.36;-1.8;-3.9;26.4;49.98;5962;2018-04-16 22:26:12:227
-5.552;-9.634;-1.124;-1.722;-9.65;0.283;-4.125;0.065;-1.413;-2.178;0.787;-0.265;-2.0;-3.8;26.3;49.98;5972;2018-04-16 22:26:12:237
-6.112;-9.619;-0.741;-1.722;-9.65;0.283;-4.125;0.065;-1.413;-2.194;0.726;-0.17;-2.0;-3.8;26.3;49.98;5982;2018-04-16 22:26:12:247
-6.112;-9.619;-0.741;-1.69;-9.659;-0.166;-4.198;-0.028;0.292;-2.194;0.726;-0.17;-2.0;-3.8;26.3;49.98;5991;2018-04-16 22:26:12:256
-5.677;-9.68;0.984;-1.69;-9.659;-0.166;-4.198;-0.028;0.292;-2.2;0.746;-0.12;-2.2;-3.9;26.3;49.98;6002;2018-04-16 22:26:12:267
-5.067;-9.691;2.72;-1.667;-9.645;-0.611;-3.4;-0.046;3.331;-2.161;0.892;-0.092;-2.2;-3.9;26.3;49.98;6012;2018-04-16 22:26:12:277
-5.067;-9.691;2.72;-1.667;-9.645;-0.611;-3.4;-0.046;3.331;-1.979;1.217;-0.017;-2.4;-4.1;26.3;49.98;6022;2018-04-16 22:26:12:287
-4.633;-9.969;3.211;-1.645;-9.613;-1.022;-2.918;-0.427;4.276;-1.845;1.472;0.016;-2.4;-4.1;26.3;49.98;6032;2018-04-16 22:26:12:297
-4.556;-10.187;3.412;-1.645;-9.613;-1.022;-2.918;-0.427;4.276;-1.686;1.773;0.07;-2.6;-4.4;26.3;49.98;6042;2018-04-16 22:26:12:307
-4.525;-10.552;3.827;-1.62;-9.572;-1.389;-2.905;-0.981;5.216;-1.473;2.134;0.154;-2.6;-4.4;26.3;49.98;6052;2018-04-16 22:26:12:317
-4.211;-10.303;3.667;-1.607;-9.552;-1.53;-2.605;-0.751;5.197;-1.227;2.508;0.231;-2.9;-4.9;26.3;49.98;6062;2018-04-16 22:26:12:327
-4.211;-10.303;3.667;-1.607;-9.552;-1.53;-2.605;-0.751;5.197;-1.227;2.508;0.231;-2.9;-4.9;26.3;49.98;6072;2018-04-16 22:26:12:337
-2.282;-9.306;2.357;-1.568;-9.518;-1.768;-0.714;0.212;4.125;-0.871;2.858;0.268;-4.1;-6.6;26.2;49.98;6082;2018-04-16 22:26:12:347
0.151;-9.418;2.057;-1.568;-9.518;-1.768;-0.714;0.212;4.125;-0.585;2.557;0.197;-5.3;-8.3;26.3;49.98;6093;2018-04-16 22:26:12:358
0.151;-9.418;2.057;-1.491;-9.518;-1.834;2.959;-0.071;0.95;0.068;1.218;-0.086;-5.3;-8.3;26.3;49.98;6101;2018-04-16 22:26:12:366
4.387;-10.186;-5.474;-1.491;-9.518;-1.834;2.959;-0.071;0.95;-0.05;0.718;-0.409;-5.3;-8.3;26.3;49.98;6112;2018-04-16 22:26:12:377
4.387;-10.186;-5.474;-1.343;-9.521;-1.928;6.404;-1.138;-1.269;-0.05;0.718;-0.409;-6.3;-9.3;25.2;49.98;6121;2018-04-16 22:26:12:386
4.775;-10.925;-2.443;-1.343;-9.521;-1.928;6.404;-1.138;-1.269;-1.053;1.624;-1.29;-7.1;-10.4;25.5;49.98;6132;2018-04-16 22:26:12:397
3.502;-11.285;-1.742;-1.039;-9.509;-2.159;4.541;-1.776;0.417;-1.053;1.624;-1.29;-7.1;-10.4;25.5;49.98;6142;2018-04-16 22:26:12:407
3.502;-11.285;-1.742;-1.039;-9.509;-2.159;4.541;-1.776;0.417;-0.839;1.067;-1.4;-7.4;-10.6;24.9;49.98;6152;2018-04-16 22:26:12:417
1.018;-10.932;-0.543;-0.747;-9.514;-2.258;1.05;-1.529;1.186;-0.227;0.731;-1.305;-7.4;-10.6;24.9;49.98;6162;2018-04-16 22:26:12:427
-0.043;-9.951;-2.144;-0.611;-9.521;-2.267;0.568;-0.43;0.123;-0.053;0.542;-1.152;-7.9;-11.6;25.0;49.98;6172;2018-04-16 22:26:12:437
-0.043;-9.951;-2.144;-0.611;-9.521;-2.267;0.568;-0.43;0.123;-0.053;0.542;-1.152;-8.2;-11.5;24.7;49.98;6182;2018-04-16 22:26:12:447
-2.064;-8.826;-2.417;-0.452;-9.524;-2.291;-2.234;0.808;1.15;-0.205;-0.888;-0.976;-8.2;-11.5;24.7;49.98;6192;2018-04-16 22:26:12:457
-3.084;-8.587;-0.086;-0.452;-9.524;-2.291;-2.234;0.808;1.15;-0.205;-0.888;-0.976;-8.2;-12.0;24.9;49.98;6202;2018-04-16 22:26:12:467
-3.375;-7.572;1.539;-0.379;-9.517;-2.337;-3.072;2.177;4.166;-0.308;-1.19;-0.682;-8.3;-12.0;24.7;49.98;6211;2018-04-16 22:26:12:476
-3.778;-6.403;1.421;-0.379;-9.517;-2.337;-3.072;2.177;4.166;-0.345;-0.765;-0.43;-8.3;-12.0;24.7;49.98;6222;2018-04-16 22:26:12:487
-3.778;-6.403;1.421;-0.331;-9.498;-2.417;-3.777;3.677;2.661;-0.525;-0.418;-0.371;-8.3;-12.4;25.4;49.98;6232;2018-04-16 22:26:12:497
-4.45;-5.91;-0.426;-0.331;-9.498;-2.417;-3.777;3.677;2.661;-0.525;-0.418;-0.371;-8.3;-12.4;25.4;49.98;6242;2018-04-16 22:26:12:507
-4.395;-5.675;-0.857;-0.263;-9.453;-2.598;-4.132;3.777;1.741;-1.03;-0.291;-0.443;-8.2;-12.7;25.9;49.98;6252;2018-04-16 22:26:12:517
-4.395;-5.675;-0.857;-0.263;-9.453;-2.598;-4.132;3.777;1.741;-1.03;-0.291;-0.443;-8.2;-12.7;25.9;55.99;6262;2018-04-16 22:26:12:527
-4.086;-6.049;-1.386;-0.233;-9.428;-2.689;-3.853;3.379;1.302;-1.095;-0.347;-0.461;-8.2;-13.2;25.1;55.99;6272;2018-04-16 22:26:12:537
-3.209;-6.446;-1.688;-0.186;-9.383;-2.846;-2.852;2.857;1.089;-0.842;-0.341;-0.353;-8.3;-13.3;25.0;55.99;6282;2018-04-16 22:26:12:547
-2.646;-6.449;-1.824;-0.178;-9.37;-2.889;-2.467;2.921;1.065;-0.421;-0.299;-0.171;-8.3;-13.3;25.0;55.99;6293;2018-04-16 22:26:12:558
-2.646;-5.938;-1.624;-0.178;-9.37;-2.889;-2.467;2.921;1.065;0.018;-0.318;0.062;-8.5;-13.3;25.1;55.99;6302;2018-04-16 22:26:12:567
-2.065;-5.938;-1.624;-0.21;-9.371;-2.882;-1.8;3.523;1.391;0.018;-0.318;0.062;-8.5;-13.3;25.1;55.99;6312;2018-04-16 22:26:12:577
-1.835;-5.727;-1.292;-0.21;-9.371;-2.882;-1.8;3.523;1.391;0.27;-0.327;0.204;-8.7;-13.5;24.9;55.99;6322;2018-04-16 22:26:12:587
-1.411;-5.601;-1.154;-0.34;-9.415;-2.723;-0.811;3.769;1.539;0.588;-0.301;0.393;-8.9;-14.0;24.7;55.99;6333;2018-04-16 22:26:12:598
-1.411;-5.601;-1.154;-0.34;-9.415;-2.723;-0.811;3.769;1.539;0.588;-0.301;0.393;-8.9;-14.0;24.7;55.99;6348;2018-04-16 22:26:12:613
-0.971;-5.722;-1.334;-0.34;-9.415;-2.723;-0.811;3.769;1.539;0.832;-0.323;0.516;-9.0;-14.1;24.6;55.99;6352;2018-04-16 22:26:12:617
-0.971;-5.722;-1.334;-0.465;-9.459;-2.545;-0.187;3.376;0.69;0.832;-0.323;0.516;-9.0;-14.1;24.6;55.99;6362;2018-04-16 22:26:12:627
-0.312;-6.535;-2.221;-0.465;-9.459;-2.545;-0.187;3.376;0.69;0.992;-0.44;0.605;-9.0;-14.1;24.6;55.99;6371;2018-04-16 22:26:12:636
-0.312;-6.535;-2.221;-0.616;-9.5;-2.355;0.56;2.232;-0.36;0.977;-0.53;0.662;-9.2;-14.5;24.4;55.99;6382;2018-04-16 22:26:12:647
-0.209;-7.871;-3.035;-0.715;-9.514;-2.266;0.342;1.017;-0.906;0.903;-0.645;0.737;-9.3;-14.7;24.3;55.99;6392;2018-04-16 22:26:12:657
-0.279;-9.779;-4.117;-0.715;-9.514;-2.266;0.342;1.017;-0.906;0.638;-0.786;0.98;-9.3;-14.7;24.3;55.99;6402;2018-04-16 22:26:12:667
-0.279;-9.779;-4.117;-0.965;-9.518;-2.157;1.085;-1.497;-2.863;0.385;-1.002;1.207;-9.3;-14.7;24.3;55.99;6412;2018-04-16 22:26:12:677
0.555;-11.856;-5.54;-1.109;-9.505;-2.143;2.19;-2.763;-3.808;0.035;-1.192;1.399;-9.2;-14.8;24.4;55.99;6422;2018-04-16 22:26:12:687
2.557;-13.515;-7.327;-1.109;-9.505;-2.143;2.19;-2.763;-3.808;0.035;-1.192;1.399;-9.2;-14.8;24.4;55.99;6432;2018-04-16 22:26:12:697
2.557;-13.515;-7.327;-1.411;-9.447;-2.219;5.384;-5.458;-6.511;-0.85;-1.462;1.108;-9.2;-14.9;24.3;55.99;6442;2018-04-16 22:26:12:707
4.363;-15.749;-9.07;-1.411;-9.447;-2.219;5.384;-5.458;-6.511;-1.285;-1.467;0.492;-9.2;-14.9;24.3;55.99;6452;2018-04-16 22:26:12:717
3.218;-16.071;-6.995;-1.503;-9.38;-2.434;4.72;-6.691;-4.561;-1.285;-1.467;0.492;-9.0;-14.9;24.5;55.99;6462;2018-04-16 22:26:12:727
2.409;-14.453;-6.042;-1.431;-9.362;-2.545;3.839;-5.091;-3.496;-1.355;-0.996;-0.608;-9.0;-14.9;24.5;55.99;6472;2018-04-16 22:26:12:737
2.409;-14.453;-6.042;-1.431;-9.362;-2.545;3.839;-5.091;-3.496;-0.935;-0.203;-1.063;-8.7;-14.9;24.6;55.99;6482;2018-04-16 22:26:12:747
0.102;-9.659;-6.691;-1.156;-9.374;-2.638;1.856;-1.419;-4.29;-0.224;0.716;-1.426;-8.4;-14.9;24.7;55.99;6492;2018-04-16 22:26:12:757
0.102;-9.659;-6.691;-1.156;-9.374;-2.638;1.856;-1.419;-4.29;-0.224;0.716;-1.426;-8.4;-14.9;24.7;55.99;6501;2018-04-16 22:26:12:766
-0.296;-7.614;-6.777;-0.843;-9.414;-2.614;0.547;1.801;-4.163;0.425;1.016;-1.333;-8.4;-14.9;24.7;55.99;6512;2018-04-16 22:26:12:777
-0.296;-7.614;-6.777;-0.843;-9.414;-2.614;0.547;1.801;-4.163;0.59;0.448;-1.156;-8.1;-14.9;24.8;55.99;6521;2018-04-16 22:26:12:786
-1.839;-6.643;-3.089;-0.673;-9.46;-2.493;-1.856;2.87;0.153;0.7;-0.252;-0.676;-8.1;-14.9;24.8;55.99;6532;2018-04-16 22:26:12:797
-4.148;-6.717;-1.741;-0.673;-9.46;-2.493;-1.856;2.87;0.153;0.7;-0.252;-0.676;-7.9;-14.9;24.7;55.99;6541;2018-04-16 22:26:12:806
-4.148;-6.717;-1.741;-0.702;-9.483;-2.398;-4.91;2.581;1.396;0.496;-0.644;-0.093;-7.9;-14.9;24.7;55.99;6552;2018-04-16 22:26:12:817
-4.148;-6.717;-1.741;-0.702;-9.483;-2.398;-4.91;2.581;1.396;0.496;-0.644;-0.093;-7.9;-14.9;24.7;55.99;6563;2018-04-16 22:26:12:828
-5.349;-6.722;0.056;-0.764;-9.48;-2.39;-4.082;2.9;3.074;0.145;-1.031;0.291;-7.6;-14.8;24.8;55.99;6572;2018-04-16 22:26:12:837
-2.454;-8.805;2.674;-0.927;-9.479;-2.335;-1.527;0.675;5.009;0.222;-1.225;0.501;-7.6;-14.8;24.8;59.8;6581;2018-04-16 22:26:12:846
-2.454;-8.805;2.674;-0.927;-9.479;-2.335;-1.527;0.675;5.009;0.605;-1.155;0.397;-7.3;-14.6;25.0;59.8;6592;2018-04-16 22:26:12:857
0.299;-13.536;-0.863;-1.014;-9.503;-2.197;1.313;-5.995;-0.297;0.605;-1.155;0.397;-7.3;-14.6;25.0;59.8;6601;2018-04-16 22:26:12:866
-1.296;-18.228;-5.26;-0.975;-9.512;-2.176;-0.322;-8.716;-3.084;-0.006;1.345;-0.25;-7.1;-14.4;25.0;59.8;6612;2018-04-16 22:26:12:877
-1.296;-18.228;-5.26;-0.975;-9.512;-2.176;-0.322;-8.716;-3.084;-0.006;1.345;-0.25;-7.1;-14.4;25.0;59.8;6622;2018-04-16 22:26:12:887
-3.912;-14.225;-5.228;-0.883;-9.493;-2.298;-3.07;-2.952;-1.474;-0.487;2.098;-0.026;-6.8;-14.2;25.3;59.8;6632;2018-04-16 22:26:12:897
-3.721;-8.24;0.449;-0.883;-9.493;-2.298;-3.07;-2.952;-1.474;-0.131;1.824;0.237;-6.7;-14.0;25.5;59.8;6642;2018-04-16 22:26:12:907
-3.646;-5.374;2.628;-0.846;-9.486;-2.339;-2.8;4.112;4.967;-0.131;1.824;0.237;-6.7;-14.0;25.5;59.8;6652;2018-04-16 22:26:12:917
-3.646;-5.374;2.628;-0.846;-9.486;-2.339;-2.8;4.112;4.967;0.43;1.427;0.066;-6.6;-14.0;25.5;59.8;6663;2018-04-16 22:26:12:928
-4.87;-4.878;-1.019;-0.775;-9.526;-2.194;-4.094;4.648;1.176;0.998;0.878;-0.206;-6.6;-13.8;25.5;59.8;6674;2018-04-16 22:26:12:939
-4.87;-4.878;-1.019;-0.775;-9.526;-2.194;-4.094;4.648;1.176;0.998;0.878;-0.206;-6.6;-13.8;25.5;59.8;6682;2018-04-16 22:26:12:947
-5.716;-5.588;-3.225;-0.751;-9.548;-2.107;-4.965;3.96;-1.118;1.059;0.52;-0.17;-6.5;-13.7;25.6;59.8;6692;2018-04-16 22:26:12:957
-4.962;-7.575;0.85;-0.831;-9.584;-1.903;-4.131;2.009;2.753;1.052;0.053;0.529;-6.5;-13.7;25.6;59.8;6702;2018-04-16 22:26:12:967
-4.344;-8.039;0.522;-0.927;-9.597;-1.791;-3.417;1.558;2.313;1.012;0.158;0.826;-6.6;-13.7;25.4;59.8;6712;2018-04-16 22:26:12:977
-4.344;-8.039;0.522;-0.927;-9.597;-1.791;-3.417;1.558;2.313;1.012;0.158;0.826;-6.6;-13.6;25.5;59.8;6722;2018-04-16 22:26:12:987
-4.343;-9.106;0.558;-1.14;-9.601;-1.638;-3.1;0.12;2.353;0.779;0.208;1.045;-6.6;-13.6;25.5;59.8;6732;2018-04-16 22:26:12:997
-4.0;-9.999;0.845;-1.14;-9.601;-1.638;-3.1;0.12;2.353;0.572;0.18;1.089;-6.6;-13.4;25.5;59.8;6742;2018-04-16 22:26:13:007
-3.747;-10.479;1.045;-1.334;-9.588;-1.57;-2.413;-0.892;2.615;0.367;0.064;1.025;-6.6;-13.4;25.5;59.8;6751;2018-04-16 22:26:13:016
-3.747;-10.479;1.045;-1.334;-9.588;-1.57;-2.413;-0.892;2.615;0.194;-0.137;0.926;-6.7;-13.1;25.5;59.8;6762;2018-04-16 22:26:13:027
-3.407;-10.837;0.776;-1.513;-9.565;-1.548;-1.728;-1.336;2.173;0.0;-0.451;0.865;-6.7;-13.1;25.5;59.8;6772;2018-04-16 22:26:13:037
-2.862;-10.682;0.298;-1.513;-9.565;-1.548;-1.728;-1.336;2.173;-0.216;-1.026;0.803;-6.9;-12.9;25.3;59.8;6782;2018-04-16 22:26:13:047
-2.849;-10.606;0.16;-1.696;-9.533;-1.553;-1.153;-1.073;1.713;-0.216;-1.026;0.803;-6.9;-12.9;25.3;59.8;6792;2018-04-16 22:26:13:057
-2.849;-10.606;0.16;-1.696;-9.533;-1.553;-1.153;-1.073;1.713;-0.263;-1.382;0.852;-7.0;-12.6;25.2;59.8;6802;2018-04-16 22:26:13:067
-2.228;-10.61;-0.232;-1.927;-9.492;-1.533;-0.301;-1.118;1.301;-0.192;-1.973;1.009;-7.0;-12.6;25.2;59.8;6812;2018-04-16 22:26:13:077
-2.228;-10.61;-0.232;-1.927;-9.492;-1.533;-0.301;-1.118;1.301;-0.192;-1.973;1.009;-7.1;-12.2;25.2;59.8;6822;2018-04-16 22:26:13:087
0.274;-9.922;-0.152;-2.216;-9.485;-1.135;2.868;-0.591;0.588;2.023;-2.539;0.93;-7.1;-11.9;25.3;59.8;6832;2018-04-16 22:26:13:097
-0.022;-11.381;-1.176;-2.216;-9.485;-1.135;2.868;-0.591;0.588;2.023;-2.539;0.93;-7.1;-11.9;25.3;59.8;6842;2018-04-16 22:26:13:107
-0.022;-11.381;-1.176;-2.35;-9.493;-0.727;0.85;-3.351;-1.254;1.845;-1.563;0.529;-7.1;-11.9;25.3;59.8;6852;2018-04-16 22:26:13:117
-2.168;-12.926;-2.508;-2.35;-9.493;-0.727;0.85;-3.351;-1.254;1.025;-0.419;0.474;-7.0;-11.5;25.3;59.8;6862;2018-04-16 22:26:13:127
-2.291;-11.945;-3.112;-2.46;-9.476;-0.575;0.169;-2.469;-2.538;0.724;-0.345;0.553;-6.9;-11.3;25.3;59.8;6874;2018-04-16 22:26:13:139
-2.291;-11.945;-3.112;-2.46;-9.476;-0.575;0.169;-2.469;-2.538;0.724;-0.345;0.553;-6.9;-11.3;25.3;59.8;6883;2018-04-16 22:26:13:148
0.025;-8.258;-2.246;-2.584;-9.442;-0.576;3.226;2.074;-0.997;-0.221;-1.008;0.659;-6.8;-10.8;25.3;59.8;6893;2018-04-16 22:26:13:158
1.213;-6.311;-0.447;-2.584;-9.442;-0.576;3.226;2.074;-0.997;-0.484;-1.329;0.331;-6.7;-10.4;25.2;58.8;6902;2018-04-16 22:26:13:167
0.909;-6.681;0.438;-2.634;-9.427;-0.597;3.902;3.331;0.695;-0.454;-1.266;0.078;-6.7;-10.4;25.2;58.8;6912;2018-04-16 22:26:13:177
0.909;-6.681;0.438;-2.634;-9.427;-0.597;3.902;3.331;0.695;-0.271;-1.052;-0.224;-6.2;-9.8;25.2;58.8;6922;2018-04-16 22:26:13:187
-0.242;-8.586;1.373;-2.605;-9.436;-0.591;2.363;0.85;1.964;-0.111;-0.833;-0.299;-6.2;-9.8;25.2;58.8;6932;2018-04-16 22:26:13:197
-0.242;-8.586;1.373;-2.605;-9.436;-0.591;2.363;0.85;1.964;-0.111;-0.833;-0.299;-6.2;-9.8;25.2;58.8;6942;2018-04-16 22:26:13:207
-1.004;-9.747;1.638;-2.543;-9.456;-0.54;1.432;-0.331;2.18;0.024;-0.569;-0.277;-5.7;-9.2;25.2;58.8;6952;2018-04-16 22:26:13:217
-1.21;-9.791;1.605;-2.543;-9.456;-0.54;1.432;-0.331;2.18;0.13;-0.303;-0.266;-5.6;-9.0;25.3;58.8;6962;2018-04-16 22:26:13:227
-1.444;-9.565;1.457;-2.478;-9.476;-0.479;1.034;-0.088;1.936;0.271;0.084;-0.301;-5.6;-9.0;25.3;58.8;6972;2018-04-16 22:26:13:237
-1.444;-9.565;1.457;-2.478;-9.476;-0.479;1.034;-0.088;1.936;0.271;0.084;-0.301;-5.2;-8.7;25.5;58.8;6982;2018-04-16 22:26:13:247
-2.172;-9.218;1.349;-2.414;-9.497;-0.392;0.235;0.412;1.732;0.454;0.353;-0.307;-5.2;-8.7;25.5;58.8;6992;2018-04-16 22:26:13:257
-2.133;-8.742;1.227;-2.414;-9.497;-0.392;0.235;0.412;1.732;0.619;0.475;-0.258;-4.9;-8.4;25.4;58.8;7002;2018-04-16 22:26:13:267
-2.158;-8.514;1.052;-2.363;-9.514;-0.266;0.205;1.0;1.318;0.786;0.606;-0.239;-4.9;-8.3;25.6;58.8;7012;2018-04-16 22:26:13:277
-2.158;-8.514;1.052;-2.363;-9.514;-0.266;0.205;1.0;1.318;0.974;0.803;-0.248;-4.9;-8.3;25.6;58.8;7022;2018-04-16 22:26:13:287
-2.289;-8.382;0.699;-2.314;-9.529;-0.111;0.025;1.147;0.81;0.974;0.803;-0.248;-4.8;-8.1;25.6;58.8;7032;2018-04-16 22:26:13:297
-2.289;-8.382;0.699;-2.314;-9.529;-0.111;0.025;1.147;0.81;1.103;0.947;-0.238;-4.8;-8.1;25.6;58.8;7042;2018-04-16 22:26:13:307
-2.728;-8.758;0.043;-2.276;-9.539;0.073;-0.544;0.71;-0.095;1.219;0.903;-0.2;-4.4;-7.7;25.7;58.8;7052;2018-04-16 22:26:13:317
-2.996;-8.927;-0.226;-2.276;-9.539;0.073;-0.544;0.71;-0.095;1.219;0.903;-0.2;-4.4;-7.7;25.7;58.8;7062;2018-04-16 22:26:13:327
-3.229;-9.052;-0.439;-2.263;-9.537;0.299;-0.872;0.546;-0.673;1.407;0.571;-0.095;-4.1;-7.3;25.7;58.8;7072;2018-04-16 22:26:13:337
-3.229;-9.052;-0.439;-2.263;-9.537;0.299;-0.872;0.546;-0.673;1.472;0.367;-0.023;-4.1;-7.3;25.7;58.8;7082;2018-04-16 22:26:13:347
-3.294;-9.159;-0.482;-2.283;-9.52;0.568;-1.008;0.3;-1.054;1.553;0.061;0.098;-3.8;-7.0;25.9;58.8;7092;2018-04-16 22:26:13:357
-3.326;-9.401;-0.468;-2.283;-9.52;0.568;-1.008;0.3;-1.054;1.553;0.061;0.098;-3.8;-7.0;25.9;58.8;7102;2018-04-16 22:26:13:367
-3.326;-9.401;-0.468;-2.324;-9.486;0.887;-0.98;-0.127;-1.296;1.636;-0.224;0.194;-3.7;-6.6;26.0;58.8;7112;2018-04-16 22:26:13:377
-3.223;-9.72;-0.399;-2.324;-9.486;0.887;-0.98;-0.127;-1.296;1.717;-0.406;0.305;-3.7;-6.6;26.0;58.8;7122;2018-04-16 22:26:13:387
-2.783;-9.779;-0.48;-2.383;-9.434;1.221;-0.401;-0.345;-1.701;1.739;-0.415;0.376;-3.5;-6.1;25.9;58.8;7132;2018-04-16 22:26:13:397
-2.783;-9.779;-0.48;-2.383;-9.434;1.221;-0.401;-0.345;-1.701;1.739;-0.415;0.376;-3.5;-6.1;25.9;58.8;7141;2018-04-16 22:26:13:406
-1.814;-9.634;-0.844;-2.449;-9.375;1.514;0.943;-0.159;-2.53;1.646;-0.183;0.411;-3.4;-5.6;25.8;58.8;7152;2018-04-16 22:26:13:417
-1.227;-9.437;-1.214;-2.449;-9.375;1.514;0.943;-0.159;-2.53;1.5;0.144;0.36;-3.3;-5.3;25.8;58.8;7162;2018-04-16 22:26:13:427
-0.369;-9.7;-1.919;-2.474;-9.352;1.611;1.247;-0.085;-2.825;1.175;0.804;0.222;-3.3;-4.8;25.6;58.8;7172;2018-04-16 22:26:13:437
-0.369;-9.7;-1.919;-2.525;-9.318;1.724;2.294;-0.476;-3.734;0.695;1.403;0.076;-3.3;-4.8;25.6;58.8;7182;2018-04-16 22:26:13:447
-0.055;-10.098;-2.06;-2.525;-9.318;1.724;2.294;-0.476;-3.734;0.312;1.555;0.005;-3.4;-4.2;25.4;58.8;7192;2018-04-16 22:26:13:457
-0.055;-10.098;-2.06;-2.572;-9.31;1.698;2.583;-1.042;-3.579;-0.049;1.458;-0.032;-3.4;-4.2;25.4;58.8;7202;2018-04-16 22:26:13:467
0.056;-10.517;-1.741;-2.572;-9.31;1.698;2.583;-1.042;-3.579;-0.301;1.097;-0.035;-3.7;-2.7;24.8;58.8;7212;2018-04-16 22:26:13:477
0.402;-11.141;-1.27;-2.601;-9.321;1.591;3.004;-1.821;-2.861;-0.369;0.505;-0.04;-3.7;-2.7;24.8;53.07;7222;2018-04-16 22:26:13:487
0.649;-11.511;-0.906;-2.599;-9.328;1.552;3.247;-2.183;-2.458;-0.369;0.505;-0.04;-3.7;-2.7;24.8;53.07;7232;2018-04-16 22:26:13:497
0.649;-12.397;-0.111;-2.599;-9.328;1.552;3.247;-2.183;-2.458;-0.25;-0.155;-0.092;-4.1;-2.0;25.0;53.07;7242;2018-04-16 22:26:13:507
0.432;-12.397;-0.111;-2.527;-9.343;1.575;2.816;-3.256;-1.476;-0.043;-1.081;-0.303;-4.1;-2.0;25.0;53.07;7252;2018-04-16 22:26:13:517
0.113;-12.789;0.442;-2.527;-9.343;1.575;2.816;-3.256;-1.476;-0.043;-1.081;-0.303;-4.6;-1.6;24.2;53.07;7262;2018-04-16 22:26:13:527
0.283;-12.489;0.966;-2.411;-9.362;1.646;2.694;-3.127;-0.68;0.011;-1.443;-0.38;-4.6;-1.6;24.2;53.07;7272;2018-04-16 22:26:13:537
0.283;-12.489;0.966;-2.411;-9.362;1.646;2.694;-3.127;-0.68;0.011;-1.443;-0.38;-4.6;-1.6;24.2;53.07;7282;2018-04-16 22:26:13:547
0.283;-12.489;0.966;-2.411;-9.362;1.646;2.694;-3.127;-0.68;0.011;-1.443;-0.38;-4.6;-1.6;24.2;53.07;7292;2018-04-16 22:26:13:557
0.387;-12.224;1.071;-2.353;-9.372;1.674;2.739;-2.852;-0.603;-0.001;-1.421;-0.413;-4.5;-1.2;24.6;53.07;7302;2018-04-16 22:26:13:567
-1.16;-12.79;-0.561;-2.139;-9.408;1.757;0.979;-3.382;-2.319;0.106;-0.628;-0.604;-4.5;-1.2;24.6;53.07;7312;2018-04-16 22:26:13:577
-2.269;-11.844;-1.955;-2.139;-9.408;1.757;0.979;-3.382;-2.319;-0.261;0.214;-0.721;-4.5;-0.9;24.5;53.07;7322;2018-04-16 22:26:13:587
-2.269;-11.844;-1.955;-2.011;-9.441;1.729;-0.506;-2.16;-3.827;-0.261;0.214;-0.721;-4.5;-0.9;24.5;53.07;7331;2018-04-16 22:26:13:596
-3.196;-11.139;-2.041;-2.011;-9.441;1.729;-0.506;-2.16;-3.827;-0.654;0.599;-0.768;-4.6;-0.6;24.5;53.07;7341;2018-04-16 22:26:13:606
-3.773;-10.791;-1.878;-1.889;-9.5;1.531;-1.884;-1.29;-3.409;-1.096;0.809;-0.765;-4.6;-0.6;24.5;53.07;7351;2018-04-16 22:26:13:616
-3.773;-10.791;-1.878;-1.889;-9.5;1.531;-1.884;-1.29;-3.409;-1.533;0.833;-0.744;-4.7;-0.2;24.4;53.07;7361;2018-04-16 22:26:13:626
-4.633;-10.329;-1.652;-1.772;-9.576;1.149;-3.093;-0.662;-2.721;-2.12;0.659;-0.7;-4.7;-0.2;24.4;53.07;7371;2018-04-16 22:26:13:636
-5.043;-10.101;-1.105;-1.772;-9.576;1.149;-3.093;-0.662;-2.721;-2.12;0.659;-0.7;-4.8;0.0;24.3;53.07;7381;2018-04-16 22:26:13:646
-5.043;-10.101;-1.105;-1.662;-9.643;0.648;-3.284;-0.25;-0.255;-2.544;0.39;-0.613;-4.8;0.0;24.3;53.07;7391;2018-04-16 22:26:13:656
-4.83;-9.742;1.731;-1.662;-9.643;0.648;-3.284;-0.25;-0.255;-2.669;0.341;-0.569;-5.0;0.2;24.1;53.07;7402;2018-04-16 22:26:13:667
-4.295;-9.353;3.559;-1.562;-9.681;0.135;-2.734;0.328;3.424;-2.589;0.469;-0.535;-5.0;0.2;24.1;53.07;7412;2018-04-16 22:26:13:677
-4.295;-9.353;3.559;-1.562;-9.681;0.135;-2.734;0.328;3.424;-2.399;0.691;-0.54;-5.2;0.3;24.0;53.07;7422;2018-04-16 22:26:13:687
-4.202;-9.589;3.633;-1.449;-9.694;-0.307;-3.135;-0.181;3.883;-2.16;0.859;-0.578;-5.2;0.3;24.0;53.07;7432;2018-04-16 22:26:13:697
-5.192;-10.357;3.466;-1.449;-9.694;-0.307;-3.135;-0.181;3.883;-1.902;0.918;-0.575;-5.3;0.2;24.1;53.07;7442;2018-04-16 22:26:13:707
-5.483;-10.769;3.383;-1.344;-9.692;-0.658;-4.139;-1.077;4.041;-1.578;1.038;-0.457;-5.3;0.2;24.1;53.07;7452;2018-04-16 22:26:13:717
-5.483;-10.769;3.383;-1.344;-9.692;-0.658;-4.139;-1.077;4.041;-1.578;1.038;-0.457;-5.6;0.0;24.1;53.07;7462;2018-04-16 22:26:13:727
-5.72;-11.357;3.206;-1.242;-9.679;-0.971;-4.495;-1.72;3.932;-1.404;1.515;-0.395;-5.6;0.0;24.1;53.07;7472;2018-04-16 22:26:13:737
-5.388;-11.369;0.706;-1.242;-9.679;-0.971;-4.495;-1.72;3.932;-1.395;2.272;-0.348;-5.9;-0.3;24.2;53.07;7481;2018-04-16 22:26:13:746
-5.388;-11.369;0.706;-1.129;-9.653;-1.311;-3.859;-1.655;-1.524;-1.536;2.409;-0.28;-5.9;-0.3;24.2;53.07;7492;2018-04-16 22:26:13:757
-4.502;-11.015;-3.831;-1.129;-9.653;-1.311;-3.859;-1.655;-1.524;-1.536;2.409;-0.28;-6.5;-1.3;24.1;53.07;7502;2018-04-16 22:26:13:767
-3.19;-10.111;-1.78;-1.063;-9.599;-1.704;-2.127;-0.512;-0.077;-1.873;1.709;-0.095;-6.5;-1.3;24.1;53.07;7511;2018-04-16 22:26:13:776
-3.19;-10.111;-1.78;-1.063;-9.599;-1.704;-2.127;-0.512;-0.077;-1.747;0.765;-0.026;-7.7;-3.2;23.9;53.07;7522;2018-04-16 22:26:13:787
-1.215;-9.533;0.892;-1.045;-9.563;-1.904;-0.004;0.041;2.53;-1.202;-0.071;-0.101;-7.7;-3.2;23.9;53.07;7532;2018-04-16 22:26:13:797
-0.408;-9.486;0.05;-1.045;-9.563;-1.904;-0.004;0.041;2.53;-0.726;-0.204;-0.248;-8.8;-4.6;24.2;53.07;7542;2018-04-16 22:26:13:807
1.372;-9.776;0.603;-0.951;-9.551;-2.013;2.323;-0.225;2.617;-0.656;0.232;-0.347;-8.8;-4.6;24.2;53.07;7552;2018-04-16 22:26:13:817
1.372;-9.776;0.603;-0.951;-9.551;-2.013;2.323;-0.225;2.617;-0.61;0.457;-0.572;-9.2;-5.8;24.4;52.4;7562;2018-04-16 22:26:13:827
1.621;-10.285;0.529;-0.877;-9.547;-2.06;2.498;-0.738;2.59;-0.61;0.457;-0.572;-9.2;-5.8;24.4;52.4;7572;2018-04-16 22:26:13:837
0.008;-10.218;-1.101;-0.668;-9.541;-2.168;0.677;-0.678;1.067;-0.48;1.17;-0.858;-9.2;-5.8;24.4;52.4;7582;2018-04-16 22:26:13:847
0.008;-10.218;-1.101;-0.668;-9.541;-2.168;0.677;-0.678;1.067;-0.529;1.17;-0.721;-10.1;-6.8;24.2;52.4;7592;2018-04-16 22:26:13:857
-0.898;-9.488;-0.072;-0.493;-9.531;-2.254;-0.619;0.196;2.377;-0.529;1.17;-0.721;-10.1;-6.8;24.2;52.4;7602;2018-04-16 22:26:13:867
-1.893;-8.835;0.278;-0.493;-9.531;-2.254;-0.619;0.196;2.377;-0.244;0.252;-0.531;-10.8;-7.1;23.5;52.4;7613;2018-04-16 22:26:13:878
-1.893;-8.835;0.278;-0.37;-9.525;-2.304;-2.371;1.446;2.181;-0.244;0.252;-0.531;-10.8;-7.1;23.5;52.4;7622;2018-04-16 22:26:13:887
-3.349;-7.536;-0.109;-0.37;-9.525;-2.304;-2.371;1.446;2.181;-0.362;0.1;-0.49;-11.3;-8.1;23.1;52.4;7632;2018-04-16 22:26:13:897
-4.107;-6.734;0.243;-0.278;-9.507;-2.391;-3.829;2.773;2.634;-0.564;0.013;-0.452;-11.3;-8.1;23.1;52.4;7641;2018-04-16 22:26:13:906
-4.116;-6.298;0.17;-0.232;-9.486;-2.476;-3.883;3.188;2.646;-0.743;-0.018;-0.431;-11.1;-7.9;23.5;52.4;7652;2018-04-16 22:26:13:917
-4.116;-6.298;0.17;-0.232;-9.486;-2.476;-3.883;3.188;2.646;-0.986;0.0;-0.502;-11.1;-7.9;23.5;52.4;7663;2018-04-16 22:26:13:928
-4.214;-6.127;-0.36;-0.138;-9.433;-2.677;-3.865;3.339;2.115;-1.157;0.024;-0.469;-11.4;-8.6;24.3;52.4;7673;2018-04-16 22:26:13:938
-3.406;-6.005;-0.777;-0.138;-9.433;-2.677;-3.865;3.339;2.115;-1.157;0.024;-0.469;-11.4;-8.6;24.3;52.4;7682;2018-04-16 22:26:13:947
-2.326;-6.161;-1.016;-0.059;-9.37;-2.892;-2.267;3.209;1.876;-1.137;0.021;-0.403;-11.3;-9.0;23.7;52.4;7692;2018-04-16 22:26:13:957
-2.326;-6.161;-1.016;-0.059;-9.37;-2.892;-2.267;3.209;1.876;-1.137;0.021;-0.403;-11.3;-9.0;23.7;52.4;7702;2018-04-16 22:26:13:967
-1.668;-6.433;-1.235;-0.016;-9.321;-3.047;-1.354;3.003;1.946;-0.834;-0.247;-0.318;-11.6;-9.0;23.2;52.4;7712;2018-04-16 22:26:13:977
-1.068;-5.995;-0.931;-0.016;-9.321;-3.047;-1.354;3.003;1.946;-0.593;-0.299;-0.198;-11.6;-9.0;23.2;52.4;7721;2018-04-16 22:26:13:986
-0.747;-5.713;-0.923;-0.022;-9.303;-3.102;-0.725;3.59;2.179;-0.321;-0.298;-0.073;-11.5;-9.1;23.4;52.4;7732;2018-04-16 22:26:13:997
-0.747;-5.713;-0.923;-0.022;-9.303;-3.102;-0.725;3.59;2.179;-0.031;-0.337;0.04;-11.5;-9.1;23.4;52.4;7742;2018-04-16 22:26:14:007
-0.462;-5.493;-1.194;-0.078;-9.317;-3.059;-0.316;3.818;1.781;0.337;-0.452;0.213;-11.7;-9.3;23.4;52.4;7752;2018-04-16 22:26:14:017
-0.074;-5.653;-1.575;-0.078;-9.317;-3.059;-0.316;3.818;1.781;0.561;-0.605;0.373;-12.0;-9.8;23.3;52.4;7762;2018-04-16 22:26:14:027
0.169;-5.965;-1.881;-0.185;-9.35;-2.952;0.354;3.385;1.072;0.561;-0.605;0.373;-12.0;-9.8;23.3;52.4;7772;2018-04-16 22:26:14:037
0.169;-5.965;-1.881;-0.185;-9.35;-2.952;0.354;3.385;1.072;0.638;-0.745;0.452;-12.0;-9.8;23.3;52.4;7782;2018-04-16 22:26:14:047
0.547;-6.717;-2.513;-0.329;-9.384;-2.827;0.874;2.344;0.05;0.649;-0.85;0.508;-12.2;-10.2;23.2;52.4;7792;2018-04-16 22:26:14:057
0.545;-7.807;-3.481;-0.329;-9.384;-2.827;0.874;2.344;0.05;0.601;-0.986;0.577;-12.2;-10.2;23.2;52.4;7802;2018-04-16 22:26:14:067
0.54;-8.598;-4.117;-0.5;-9.408;-2.722;1.039;0.81;-1.395;0.52;-1.15;0.644;-12.3;-10.5;23.2;52.4;7812;2018-04-16 22:26:14:077
0.54;-8.598;-4.117;-0.5;-9.408;-2.722;1.039;0.81;-1.395;0.52;-1.15;0.644;-12.3;-10.6;23.2;52.4;7823;2018-04-16 22:26:14:088
0.74;-10.227;-5.144;-0.5;-9.408;-2.722;1.039;0.81;-1.395;0.337;-1.492;0.773;-12.3;-10.6;23.2;52.4;7832;2018-04-16 22:26:14:097
1.306;-11.651;-5.98;-0.725;-9.416;-2.642;1.581;-1.262;-2.788;0.211;-1.779;0.855;-12.4;-10.9;23.1;52.4;7842;2018-04-16 22:26:14:107
1.306;-11.651;-5.98;-0.998;-9.402;-2.602;3.006;-3.075;-3.87;-0.059;-2.074;0.893;-12.4;-10.9;23.1;52.4;7852;2018-04-16 22:26:14:117
2.26;-12.839;-6.574;-0.998;-9.402;-2.602;3.006;-3.075;-3.87;-0.059;-2.074;0.893;-12.3;-11.0;23.1;52.4;7862;2018-04-16 22:26:14:127
2.069;-13.755;-6.719;-1.192;-9.367;-2.649;3.261;-4.388;-4.071;-0.443;-1.855;0.568;-12.3;-11.0;23.1;52.4;7872;2018-04-16 22:26:14:137
2.069;-13.755;-6.719;-1.192;-9.367;-2.649;3.261;-4.388;-4.071;-0.778;-0.951;-0.061;-12.2;-11.1;23.2;55.98;7882;2018-04-16 22:26:14:147
0.91;-13.276;-7.228;-1.17;-9.331;-2.782;1.865;-3.546;-4.637;-0.797;-0.26;-0.468;-12.2;-11.1;23.2;55.98;7892;2018-04-16 22:26:14:157
0.053;-11.516;-7.199;-1.17;-9.331;-2.782;1.865;-3.546;-4.637;-0.797;-0.26;-0.468;-12.0;-11.1;23.3;55.98;7902;2018-04-16 22:26:14:167
-0.65;-10.446;-6.292;-0.989;-9.326;-2.866;0.339;-1.12;-3.426;-0.236;0.461;-0.918;-11.7;-11.2;23.6;55.98;7913;2018-04-16 22:26:14:178
-0.65;-10.446;-6.292;-0.989;-9.326;-2.866;0.339;-1.12;-3.426;0.219;0.495;-0.913;-11.7;-11.2;23.6;55.98;7922;2018-04-16 22:26:14:187
-2.502;-9.488;-4.794;-0.816;-9.37;-2.776;-2.255;0.031;-1.6;0.776;0.276;-0.756;-11.6;-11.2;23.7;55.98;7932;2018-04-16 22:26:14:197
-4.244;-9.029;-3.371;-0.816;-9.37;-2.776;-2.255;0.031;-1.6;0.776;0.276;-0.37;-11.4;-11.3;23.9;55.98;7941;2018-04-16 22:26:14:206
-5.298;-8.663;-3.879;-0.752;-9.432;-2.576;-4.546;0.769;-1.303;1.09;0.01;-0.37;-11.4;-11.3;23.9;55.98;7952;2018-04-16 22:26:14:217
-5.298;-8.663;-3.879;-0.752;-9.432;-2.576;-4.546;0.769;-1.303;1.034;-0.158;-0.084;-11.4;-11.3;23.9;55.98;7962;2018-04-16 22:26:14:227
-5.124;-9.303;-3.284;-0.802;-9.467;-2.427;-3.72;-0.272;-0.65;0.766;-0.463;0.14;-11.2;-11.2;24.0;55.98;7972;2018-04-16 22:26:14:237
-2.116;-11.481;-2.575;-0.802;-9.467;-2.427;-3.72;-0.272;-0.65;0.428;-0.756;0.232;-11.2;-11.2;24.0;55.98;7982;2018-04-16 22:26:14:247
1.094;-14.319;-3.768;-0.843;-9.469;-2.408;1.937;-4.85;-1.36;-0.126;-0.536;-0.065;-10.9;-11.1;24.2;55.98;7992;2018-04-16 22:26:14:257
1.094;-14.319;-3.768;-0.843;-9.469;-2.408;1.937;-4.85;-1.36;-0.126;-0.536;-0.065;-10.9;-11.1;24.2;55.98;8002;2018-04-16 22:26:14:267
-0.743;-16.521;-0.588;-0.73;-9.448;-2.523;-0.568;-4.943;2.814;-0.629;0.645;-0.519;-10.7;-11.0;24.4;55.98;8012;2018-04-16 22:26:14:277
-1.375;-8.28;1.951;-0.73;-9.448;-2.523;-0.568;-4.943;2.814;-0.403;1.129;-0.239;-10.7;-11.0;24.4;55.98;8022;2018-04-16 22:26:14:287
-1.375;-8.28;1.951;-0.65;-9.448;-2.546;-1.341;5.094;6.29;0.132;1.47;-0.02;-10.5;-10.8;24.7;55.98;8032;2018-04-16 22:26:14:297
-2.819;-3.585;4.11;-0.65;-9.448;-2.546;-1.341;5.094;6.29;0.555;1.686;-0.051;-10.5;-10.8;24.7;55.98;8042;2018-04-16 22:26:14:307
-4.293;-4.624;2.27;-0.556;-9.488;-2.418;-3.737;4.863;4.688;0.965;1.701;-0.065;-10.3;-10.6;24.9;55.98;8052;2018-04-16 22:26:14:317
-4.293;-4.624;2.27;-0.556;-9.488;-2.418;-3.737;4.863;4.688;0.965;1.701;-0.065;-10.3;-10.6;24.9;55.98;8062;2018-04-16 22:26:14:327
-5.225;-6.306;-2.576;-0.505;-9.54;-2.214;-5.085;2.343;-1.41;1.245;1.768;-0.007;-10.3;-10.4;25.0;55.98;8072;2018-04-16 22:26:14:337
-6.242;-9.299;-1.848;-0.505;-9.54;-2.214;-5.085;2.343;-1.41;1.057;1.285;0.335;-10.3;-10.3;25.0;55.98;8082;2018-04-16 22:26:14:347
-5.8;-9.659;-0.04;-0.565;-9.576;-2.036;-5.235;-0.083;1.996;0.943;1.12;0.773;-10.3;-10.3;25.0;55.98;8093;2018-04-16 22:26:14:358
-5.8;-9.659;-0.04;-0.565;-9.576;-2.036;-5.235;-0.083;1.996;0.87;1.093;1.062;-10.3;-10.1;25.1;55.98;8102;2018-04-16 22:26:14:367
-4.751;-9.614;0.208;-0.738;-9.594;-1.893;-3.91;-0.069;2.147;0.755;1.062;1.146;-10.3;-10.1;25.1;55.98;8112;2018-04-16 22:26:14:377
-4.751;-9.614;0.208;-0.738;-9.594;-1.893;-3.91;-0.069;2.147;0.755;1.062;1.146;-10.3;-9.9;25.0;55.98;8123;2018-04-16 22:26:14:388
-4.551;-9.834;0.316;-0.816;-9.596;-1.849;-3.735;-0.238;2.165;0.606;1.018;1.125;-10.3;-9.9;25.0;55.98;8132;2018-04-16 22:26:14:397
-4.046;-9.774;0.019;-0.99;-9.59;-1.796;-3.056;-0.185;1.815;0.248;0.768;1.029;-10.5;-9.6;25.0;55.98;8141;2018-04-16 22:26:14:406
-3.71;-9.774;0.034;-1.09;-9.58;-1.791;-2.62;-0.195;1.825;0.077;0.492;1.012;-10.5;-9.6;25.0;55.98;8152;2018-04-16 22:26:14:417
-3.71;-9.774;0.034;-1.09;-9.58;-1.791;-2.62;-0.195;1.825;0.077;0.492;1.012;-10.7;-9.3;24.8;55.98;8162;2018-04-16 22:26:14:427
-3.287;-9.855;0.363;-1.297;-9.554;-1.792;-1.796;-0.219;2.303;-0.073;-0.292;1.038;-10.7;-9.3;24.8;55.98;8172;2018-04-16 22:26:14:437
-2.632;-9.438;0.94;-1.297;-9.554;-1.792;-1.796;-0.219;2.303;-0.048;-0.704;1.023;-11.0;-9.0;24.7;55.98;8182;2018-04-16 22:26:14:447
-2.247;-9.549;0.84;-1.527;-9.529;-1.741;-0.72;-0.02;2.582;0.169;-1.443;0.91;-11.3;-8.5;24.4;55.98;8193;2018-04-16 22:26:14:458
-2.247;-9.549;0.84;-1.527;-9.529;-1.741;-0.72;-0.02;2.582;0.169;-1.443;0.91;-11.3;-8.5;24.4;57.62;8201;2018-04-16 22:26:14:466
-1.541;-9.978;0.298;-1.76;-9.517;-1.579;0.22;-0.461;1.877;0.42;-1.928;0.885;-11.6;-8.3;24.2;57.62;8212;2018-04-16 22:26:14:477
-1.541;-9.978;0.298;-1.76;-9.517;-1.579;0.22;-0.461;1.877;0.969;-2.682;0.9;-11.6;-8.3;24.2;57.62;8222;2018-04-16 22:26:14:487
-0.664;-10.658;-0.006;-2.01;-9.517;-1.251;1.598;-1.254;1.384;1.338;-2.867;0.908;-11.6;-7.9;24.1;57.62;8232;2018-04-16 22:26:14:497
0.705;-10.499;0.333;-2.01;-9.517;-1.251;1.598;-1.254;1.384;1.338;-2.867;0.908;-11.6;-7.9;24.1;57.62;8242;2018-04-16 22:26:14:507
0.705;-10.499;0.333;-2.174;-9.524;-0.857;3.656;-0.698;0.854;1.707;-1.934;0.74;-11.7;-7.4;24.0;57.62;8252;2018-04-16 22:26:14:517
1.528;-10.157;-0.332;-2.174;-9.524;-0.857;3.656;-0.698;0.854;1.581;-0.53;0.401;-11.7;-7.2;23.9;57.62;8262;2018-04-16 22:26:14:527
-0.213;-10.434;-0.937;-2.16;-9.542;-0.673;1.947;-0.892;-0.264;1.167;0.776;0.018;-11.7;-7.2;23.9;57.62;8272;2018-04-16 22:26:14:537
-0.213;-10.434;-0.937;-2.16;-9.542;-0.673;1.947;-0.892;-0.264;0.706;1.477;-0.145;-11.6;-6.4;23.9;57.62;8282;2018-04-16 22:26:14:547
-1.024;-10.114;-1.346;-2.125;-9.55;-0.677;1.396;-0.118;-0.85;0.238;1.594;0.026;-11.6;-6.4;23.9;57.62;8292;2018-04-16 22:26:14:557
0.017;-8.695;-1.618;-2.125;-9.55;-0.677;1.396;-0.118;-0.85;0.238;1.594;0.026;-11.6;-5.7;23.9;57.62;8302;2018-04-16 22:26:14:567
0.017;-8.695;-1.618;-2.123;-9.55;-0.681;2.244;1.035;-0.496;0.165;0.929;0.087;-11.6;-5.7;23.9;57.62;8312;2018-04-16 22:26:14:577
-0.278;-8.789;-0.751;-2.123;-9.55;-0.681;2.244;1.035;-0.496;0.314;0.259;-0.015;-11.8;-5.2;23.5;57.62;8322;2018-04-16 22:26:14:587
-0.935;-9.11;-0.311;-2.116;-9.558;-0.578;1.082;0.432;0.348;0.47;-0.387;-0.046;-11.9;-5.4;23.3;57.62;8332;2018-04-16 22:26:14:597
-1.099;-9.006;-0.196;-2.116;-9.558;-0.578;1.082;0.432;0.348;0.439;-0.887;0.012;-11.9;-5.4;23.3;57.62;8342;2018-04-16 22:26:14:607
-1.099;-9.006;-0.196;-2.126;-9.562;-0.465;0.96;0.563;0.284;0.439;-0.887;0.012;-12.0;-4.9;23.4;57.62;8352;2018-04-16 22:26:14:617
-1.347;-9.005;-0.086;-2.132;-9.563;-0.422;0.786;0.558;0.335;0.272;-1.062;0.038;-12.0;-4.3;23.3;57.62;8362;2018-04-16 22:26:14:627
-1.347;-9.005;-0.086;-2.132;-9.563;-0.422;0.786;0.558;0.335;0.272;-1.062;0.038;-12.0;-4.3;23.3;57.62;8372;2018-04-16 22:26:14:637
-1.799;-9.179;0.212;-2.145;-9.564;-0.309;0.296;0.356;0.552;0.309;-1.179;0.038;-12.0;-4.3;23.3;57.62;8382;2018-04-16 22:26:14:647
-2.006;-9.284;0.36;-2.145;-9.564;-0.309;0.296;0.356;0.552;0.469;-1.115;0.012;-11.9;-3.8;23.4;57.62;8392;2018-04-16 22:26:14:657
-2.193;-9.151;0.406;-2.151;-9.566;-0.163;-0.005;0.332;0.578;0.557;-0.854;-0.001;-11.7;-3.3;23.5;57.62;8402;2018-04-16 22:26:14:667
-2.193;-9.151;0.406;-2.151;-9.566;-0.163;-0.005;0.332;0.578;0.557;-0.854;-0.001;-11.7;-3.3;23.5;57.62;8412;2018-04-16 22:26:14:677
-2.175;-8.738;0.283;-2.152;-9.567;-0.025;-0.023;0.83;0.308;0.572;-0.591;0.0;-11.7;-3.3;23.5;57.62;8421;2018-04-16 22:26:14:686
-2.142;-8.46;0.108;-2.153;-9.567;0.036;0.011;1.107;0.071;0.563;-0.307;0.002;-11.5;-2.8;23.5;57.62;8432;2018-04-16 22:26:14:697
-2.142;-8.46;0.108;-2.153;-9.567;0.036;0.011;1.107;0.071;0.534;0.053;0.006;-11.5;-2.8;23.5;57.62;8441;2018-04-16 22:26:14:706
-2.11;-8.258;-0.086;-2.156;-9.566;0.132;0.015;1.308;-0.268;0.517;0.184;0.018;-11.2;-2.4;23.6;57.62;8452;2018-04-16 22:26:14:717
-2.23;-8.285;-0.242;-2.156;-9.566;0.132;0.015;1.308;-0.268;0.517;0.184;0.018;-11.2;-2.4;23.6;57.62;8462;2018-04-16 22:26:14:727
-2.23;-8.285;-0.242;-2.17;-9.561;0.229;-0.129;1.164;-0.509;0.573;0.139;0.09;-10.9;-2.0;23.8;57.62;8472;2018-04-16 22:26:14:737
-2.425;-8.669;-0.309;-2.17;-9.561;0.229;-0.129;1.164;-0.509;0.698;-0.098;0.165;-10.9;-2.0;23.8;57.62;8483;2018-04-16 22:26:14:748
-2.653;-9.151;-0.286;-2.21;-9.547;0.374;-0.443;0.396;-0.66;0.773;-0.266;0.214;-10.6;-1.6;24.0;57.62;8492;2018-04-16 22:26:14:757
-2.653;-9.151;-0.286;-2.21;-9.547;0.374;-0.443;0.396;-0.66;0.773;-0.266;0.214;-10.6;-1.6;24.0;57.62;8504;2018-04-16 22:26:14:769
-2.857;-9.72;-0.139;-2.264;-9.525;0.559;-0.643;-0.263;-0.664;0.869;-0.453;0.279;-10.3;-1.2;24.1;57.62;8512;2018-04-16 22:26:14:777
-2.812;-10.008;-0.014;-2.264;-9.525;0.559;-0.643;-0.263;-0.664;0.949;-0.545;0.354;-10.1;-0.7;24.1;57.65;8527;2018-04-16 22:26:14:792
-2.812;-10.008;-0.014;-2.33;-9.495;0.763;-0.416;-0.492;-0.761;0.983;-0.545;0.402;-10.1;-0.7;24.1;57.65;8531;2018-04-16 22:26:14:796
-2.465;-9.834;0.051;-2.33;-9.495;0.763;-0.416;-0.492;-0.761;0.983;-0.545;0.402;-10.0;-0.3;24.2;57.65;8542;2018-04-16 22:26:14:807
-2.465;-9.834;0.051;-2.408;-9.457;0.967;0.252;-0.2;-0.892;1.002;-0.452;0.457;-10.0;-0.3;24.2;57.65;8552;2018-04-16 22:26:14:817
-1.981;-9.565;0.049;-2.408;-9.457;0.967;0.252;-0.2;-0.892;1.014;-0.345;0.475;-10.0;-0.3;24.2;57.65;8562;2018-04-16 22:26:14:827
-1.372;-9.488;-0.104;-2.486;-9.416;1.157;1.114;-0.073;-1.261;1.018;-0.219;0.472;-9.9;0.0;24.2;57.65;8572;2018-04-16 22:26:14:837
-1.372;-9.488;-0.104;-2.486;-9.416;1.157;1.114;-0.073;-1.261;0.966;-0.024;0.409;-9.9;0.0;24.2;57.65;8582;2018-04-16 22:26:14:847
-0.827;-9.667;-0.342;-2.544;-9.38;1.31;1.849;-0.28;-1.721;0.889;0.087;0.354;-9.8;0.3;24.1;57.65;8592;2018-04-16 22:26:14:857
-0.289;-9.676;-0.646;-2.544;-9.38;1.31;1.849;-0.28;-1.721;0.889;0.087;0.354;-9.8;0.3;24.1;57.65;8602;2018-04-16 22:26:14:867
0.072;-9.683;-0.891;-2.576;-9.356;1.413;2.648;-0.327;-2.303;0.735;0.211;0.257;-9.7;0.7;24.1;57.65;8611;2018-04-16 22:26:14:876
0.072;-9.683;-0.891;-2.576;-9.356;1.413;2.648;-0.327;-2.303;0.599;0.224;0.169;-9.7;0.7;24.1;57.65;8622;2018-04-16 22:26:14:887
0.255;-9.802;-1.012;-2.576;-9.348;1.468;2.81;-0.568;-2.461;0.462;0.167;0.087;-9.5;1.2;24.1;57.65;8632;2018-04-16 22:26:14:897
0.072;-10.28;-0.888;-2.576;-9.348;1.468;2.81;-0.568;-2.461;0.357;-0.009;-0.031;-9.5;1.2;24.1;57.65;8642;2018-04-16 22:26:14:907
0.072;-10.28;-0.888;-2.552;-9.344;1.532;2.151;-1.631;-2.115;0.345;-0.13;-0.14;-9.3;1.6;24.0;57.65;8652;2018-04-16 22:26:14:917
-0.723;-11.343;-0.357;-2.552;-9.344;1.532;2.151;-1.631;-2.115;0.329;-0.181;-0.215;-9.3;1.6;24.0;57.65;8663;2018-04-16 22:26:14:928
-1.076;-11.732;-0.035;-2.502;-9.346;1.601;1.355;-2.429;-1.558;0.327;-0.149;-0.259;-9.2;2.1;24.0;57.65;8672;2018-04-16 22:26:14:937
-1.244;-11.892;0.138;-2.502;-9.346;1.601;1.355;-2.429;-1.558;0.346;-0.053;-0.29;-9.2;2.1;24.0;57.65;8684;2018-04-16 22:26:14:949
-1.244;-11.892;0.138;-2.444;-9.35;1.665;1.363;-2.445;-1.618;0.346;-0.053;-0.29;-9.0;2.5;23.9;57.65;8692;2018-04-16 22:26:14:957
-0.91;-11.653;-0.011;-2.444;-9.35;1.665;1.363;-2.445;-1.618;0.338;0.151;-0.342;-9.0;2.7;23.8;57.65;8702;2018-04-16 22:26:14:967
-0.362;-11.35;-0.496;-2.381;-9.359;1.708;2.019;-1.991;-2.204;0.277;0.261;-0.395;-9.0;2.7;23.8;57.65;8712;2018-04-16 22:26:14:977
-0.362;-11.35;-0.496;-2.381;-9.359;1.708;2.019;-1.991;-2.204;0.277;0.261;-0.395;-9.0;3.1;23.6;57.65;8721;2018-04-16 22:26:14:986
-0.134;-11.216;-1.03;-2.298;-9.375;1.731;2.104;-1.922;-2.862;0.137;0.153;-0.511;-9.0;3.1;23.6;57.65;8732;2018-04-16 22:26:14:997
-0.287;-11.474;-1.28;-2.298;-9.375;1.731;2.104;-1.922;-2.862;-0.005;0.034;-0.563;-9.0;3.5;23.6;57.65;8741;2018-04-16 22:26:15:006
-0.492;-12.032;-1.474;-2.186;-9.405;1.712;1.694;-2.627;-3.185;-0.198;-0.099;-0.599;-9.0;3.5;23.6;57.65;8752;2018-04-16 22:26:15:017
-0.492;-12.032;-1.474;-2.186;-9.405;1.712;1.694;-2.627;-3.185;-0.198;-0.099;-0.599;-9.0;3.8;23.5;57.65;8762;2018-04-16 22:26:15:027
-0.605;-12.372;-1.256;-2.043;-9.46;1.58;1.29;-2.906;-2.57;-0.784;-0.459;-0.67;-9.0;3.8;23.5;57.65;8772;2018-04-16 22:26:15:037
-1.361;-12.152;-0.233;-2.043;-9.46;1.58;1.29;-2.906;-2.57;-1.12;-0.632;-0.738;-9.0;4.1;23.3;57.65;8782;2018-04-16 22:26:15:047
-2.057;-11.841;0.375;-1.874;-9.533;1.336;-0.183;-2.308;-0.961;-1.411;-0.676;-0.792;-9.0;4.1;23.3;57.65;8793;2018-04-16 22:26:15:058
-2.057;-11.841;0.375;-1.874;-9.533;1.336;-0.183;-2.308;-0.961;-1.641;-0.591;-0.822;-9.1;4.4;23.1;57.65;8802;2018-04-16 22:26:15:067
-3.163;-10.918;0.792;-1.702;-9.606;1.003;-1.715;-1.086;-0.246;-1.641;-0.591;-0.822;-9.1;4.4;23.1;57.65;8812;2018-04-16 22:26:15:077
-4.347;-10.051;0.142;-1.702;-9.606;1.003;-1.715;-1.086;-0.246;-1.946;-0.112;-0.881;-9.1;4.5;23.1;57.65;8822;2018-04-16 22:26:15:087
-4.993;-9.6;-0.323;-1.539;-9.667;0.59;-3.454;0.067;-0.914;-2.172;0.379;-0.849;-9.1;4.5;23.1;57.65;8833;2018-04-16 22:26:15:098
-4.993;-9.6;-0.323;-1.539;-9.667;0.59;-3.454;0.067;-0.914;-2.172;0.379;-0.849;-9.2;4.7;23.1;57.65;8842;2018-04-16 22:26:15:107
-5.051;-9.021;0.927;-1.402;-9.705;0.111;-3.514;0.741;1.713;-2.379;0.825;-0.761;-9.2;4.7;23.1;57.65;8852;2018-04-16 22:26:15:117
-5.015;-9.158;3.478;-1.402;-9.705;0.111;-3.514;0.741;1.713;-2.359;1.079;-0.746;-9.2;4.6;23.4;51.04;8862;2018-04-16 22:26:15:127
-5.015;-9.158;3.478;-1.259;-9.72;-0.336;-3.964;0.2;4.384;-2.158;1.308;-0.727;-9.2;4.6;23.4;51.04;8872;2018-04-16 22:26:15:137
-5.72;-9.841;4.0;-1.259;-9.72;-0.336;-3.964;0.2;4.384;-1.831;1.454;-0.676;-9.5;4.4;23.4;51.04;8882;2018-04-16 22:26:15:147
-5.735;-10.499;3.051;-1.133;-9.718;-0.671;-4.603;-0.781;3.722;-1.443;1.486;-0.535;-9.5;4.4;23.4;51.04;8892;2018-04-16 22:26:15:157
-5.735;-10.499;3.051;-1.133;-9.718;-0.671;-4.603;-0.781;3.722;-1.443;1.486;-0.535;-9.7;4.1;23.7;51.04;8902;2018-04-16 22:26:15:167
-6.68;-11.581;2.998;-1.009;-9.708;-0.951;-5.479;-1.936;3.373;-1.269;1.577;-0.517;-9.7;4.1;23.7;51.04;8912;2018-04-16 22:26:15:177
-6.055;-11.709;0.29;-1.009;-9.708;-0.951;-5.479;-1.936;3.373;-1.159;1.69;-0.425;-10.6;2.5;23.6;51.04;8922;2018-04-16 22:26:15:187
-5.804;-11.453;-2.091;-0.905;-9.688;-1.219;-4.898;-1.764;-0.873;-1.271;1.696;-0.313;-10.6;2.5;23.6;51.04;8932;2018-04-16 22:26:15:197
-5.804;-11.453;-2.091;-0.905;-9.688;-1.219;-4.898;-1.764;-0.873;-1.271;1.696;-0.313;-11.7;1.4;24.0;51.04;8942;2018-04-16 22:26:15:207
-4.016;-9.867;-2.052;-0.873;-9.651;-1.504;-2.84;-0.126;0.079;-1.467;0.506;-0.119;-12.1;0.4;23.9;51.04;8952;2018-04-16 22:26:15:217
-3.081;-9.623;-0.609;-0.873;-9.651;-1.504;-2.84;-0.126;0.079;-1.357;-0.707;-0.064;-13.0;-0.7;24.0;51.04;8962;2018-04-16 22:26:15:227
-3.081;-9.623;-0.609;-0.894;-9.635;-1.596;-1.501;0.156;1.142;-1.357;-1.773;-0.037;-13.0;-0.7;24.0;51.04;8972;2018-04-16 22:26:15:237
-0.212;-9.282;-0.302;-0.915;-9.605;-1.756;1.814;0.155;1.729;-1.054;-1.773;-0.037;-13.0;-1.8;25.3;51.04;8982;2018-04-16 22:26:15:247
1.829;-9.943;1.363;-0.873;-9.588;-1.866;2.681;-0.327;3.81;-1.135;-1.399;-0.359;-13.0;-1.8;25.3;51.04;8992;2018-04-16 22:26:15:257
1.967;-9.841;2.203;-0.873;-9.588;-1.866;2.681;-0.327;3.81;-1.293;0.44;-0.706;-13.0;-2.3;25.8;51.04;9002;2018-04-16 22:26:15:267
0.31;-10.591;0.219;-0.685;-9.553;-2.106;0.995;-1.037;2.325;-1.156;1.301;-0.812;-13.3;-3.9;25.1;51.04;9012;2018-04-16 22:26:15:277
0.31;-10.591;0.219;-0.685;-9.553;-2.106;0.995;-1.037;2.325;-1.156;1.301;-0.812;-13.3;-3.9;25.1;51.04;9025;2018-04-16 22:26:15:290
-0.324;-9.718;0.373;-0.685;-9.553;-2.106;0.995;-1.037;2.325;-0.778;1.47;-0.425;-13.3;-3.9;25.1;51.04;9032;2018-04-16 22:26:15:297
-0.848;-8.899;0.062;-0.517;-9.525;-2.276;0.082;0.201;2.81;-0.48;1.602;-0.371;-13.6;-3.9;24.4;51.04;9044;2018-04-16 22:26:15:309
-0.848;-8.899;0.062;-0.37;-9.522;-2.317;-1.165;0.485;1.382;-0.077;1.398;-0.452;-13.6;-3.9;24.4;51.04;9051;2018-04-16 22:26:15:316
-1.595;-9.145;-1.599;-0.37;-9.522;-2.317;-1.165;0.485;1.382;-0.077;1.398;-0.452;-14.2;-5.1;27.2;51.04;9062;2018-04-16 22:26:15:327
-2.77;-7.976;-1.289;-0.261;-9.531;-2.293;-2.017;0.935;0.66;0.024;-0.084;-0.607;-14.6;-5.4;24.4;51.04;9072;2018-04-16 22:26:15:337
-2.77;-7.976;-1.289;-0.261;-9.531;-2.293;-2.017;0.935;0.66;-0.228;-0.13;-0.687;-14.6;-5.4;24.4;51.04;9082;2018-04-16 22:26:15:347
-3.604;-6.567;0.011;-0.137;-9.523;-2.336;-3.467;2.956;2.347;-0.228;-0.13;-0.687;-14.6;-5.4;24.4;51.04;9092;2018-04-16 22:26:15:357
-3.604;-5.373;0.198;-0.137;-9.523;-2.336;-3.467;2.956;2.347;-0.519;-0.126;-0.709;-15.0;-5.6;24.9;51.04;9102;2018-04-16 22:26:15:367
-3.729;-5.373;0.198;-0.01;-9.499;-2.438;-3.695;4.203;2.317;-0.519;-0.126;-0.709;-15.0;-5.6;24.9;51.04;9112;2018-04-16 22:26:15:377
-3.573;-5.301;-0.345;-0.01;-9.499;-2.438;-3.695;4.203;2.317;-0.645;-0.101;-0.64;-15.0;-5.9;24.7;51.04;9122;2018-04-16 22:26:15:387
-2.75;-5.79;-0.48;0.08;-9.462;-2.575;-2.83;3.672;2.095;-0.749;-0.127;-0.459;-15.0;-5.9;24.7;51.04;9132;2018-04-16 22:26:15:397
-2.75;-5.79;-0.48;0.08;-9.462;-2.575;-2.83;3.672;2.095;-0.749;-0.127;-0.459;-14.8;-6.0;24.8;51.04;9142;2018-04-16 22:26:15:407
-1.889;-6.219;-0.771;0.119;-9.43;-2.688;-1.866;3.156;1.894;-0.61;-0.186;-0.268;-14.8;-6.0;24.8;51.04;9152;2018-04-16 22:26:15:417
-1.498;-6.327;-0.785;0.119;-9.43;-2.688;-1.866;3.156;1.894;-0.45;-0.215;-0.127;-14.9;-6.1;25.0;51.04;9162;2018-04-16 22:26:15:427
-1.498;-6.327;-0.785;0.098;-9.418;-2.731;-1.319;3.291;2.046;-0.235;-0.319;0.013;-14.9;-6.1;25.0;51.04;9172;2018-04-16 22:26:15:437
-1.074;-5.938;-0.588;0.069;-9.421;-2.721;-0.985;3.66;2.19;0.112;-0.516;0.184;-15.0;-6.4;25.0;57.38;9183;2018-04-16 22:26:15:448
-0.819;-5.648;-0.508;0.069;-9.421;-2.721;-0.985;3.66;2.19;0.112;-0.516;0.184;-15.1;-6.3;24.9;57.38;9192;2018-04-16 22:26:15:457
-0.521;-5.634;-0.831;-0.021;-9.443;-2.647;-0.5;3.809;1.816;0.408;-0.659;0.293;-15.1;-6.3;24.9;57.38;9202;2018-04-16 22:26:15:467
-0.521;-5.634;-0.831;-0.021;-9.443;-2.647;-0.5;3.809;1.816;0.608;-0.848;0.379;-15.3;-6.8;25.0;57.38;9212;2018-04-16 22:26:15:477
-0.243;-6.126;-1.325;-0.145;-9.475;-2.524;-0.059;3.144;1.066;0.608;-0.848;0.379;-15.3;-6.8;25.0;57.38;9222;2018-04-16 22:26:15:487
-0.071;-6.922;-1.851;-0.228;-9.493;-2.45;0.157;2.571;0.599;0.696;-1.003;0.484;-15.4;-7.2;25.1;57.38;9232;2018-04-16 22:26:15:497
-0.071;-6.922;-1.851;-0.228;-9.493;-2.45;0.157;2.571;0.599;0.683;-1.059;0.575;-15.4;-7.2;25.1;57.38;9242;2018-04-16 22:26:15:507
-0.06;-8.176;-3.012;-0.409;-9.515;-2.338;0.408;0.97;-1.2;0.591;-1.114;0.666;-15.4;-7.6;25.2;57.38;9254;2018-04-16 22:26:15:519
-0.06;-8.176;-3.012;-0.409;-9.515;-2.338;0.408;0.97;-1.2;0.435;-1.189;0.788;-15.4;-7.6;25.2;57.38;9262;2018-04-16 22:26:15:527
0.22;-9.464;-4.677;-0.508;-9.518;-2.307;0.728;0.054;-2.37;0.037;-1.453;0.943;-15.4;-7.9;25.3;57.38;9272;2018-04-16 22:26:15:537
2.146;-11.903;-7.597;-0.762;-9.499;-2.313;2.908;-2.403;-5.284;0.037;-1.453;0.943;-15.4;-7.9;25.3;57.38;9282;2018-04-16 22:26:15:547
2.146;-11.903;-7.597;-0.762;-9.499;-2.313;2.908;-2.403;-5.284;-0.783;-1.884;0.793;-15.4;-8.1;25.4;57.38;9292;2018-04-16 22:26:15:557
3.644;-14.477;-9.064;-0.969;-9.442;-2.467;4.755;-5.493;-6.645;-1.223;-1.87;0.419;-15.4;-8.1;25.4;57.38;9302;2018-04-16 22:26:15:567
3.415;-15.315;-8.303;-0.969;-9.442;-2.467;4.755;-5.493;-6.645;-1.478;-1.583;-0.095;-15.3;-8.2;25.4;57.38;9312;2018-04-16 22:26:15:577
3.415;-15.315;-8.303;-0.956;-9.38;-2.697;4.496;-4.687;-4.838;-1.356;-0.955;-0.555;-15.3;-8.2;25.4;57.38;9322;2018-04-16 22:26:15:587
3.332;-13.394;-7.367;-0.838;-9.372;-2.763;3.835;-3.346;-4.644;-0.629;0.121;-1.113;-15.1;-8.3;25.6;57.38;9332;2018-04-16 22:26:15:597
2.198;-11.43;-7.562;-0.838;-9.372;-2.763;3.835;-3.346;-4.644;-0.629;0.121;-1.113;-15.1;-8.3;25.6;57.38;9343;2018-04-16 22:26:15:608
2.198;-11.43;-7.562;-0.838;-9.372;-2.763;3.835;-3.346;-4.644;0.007;0.579;-1.286;-14.9;-8.5;25.8;57.38;9352;2018-04-16 22:26:15:617
1.343;-10.154;-7.125;-0.568;-9.391;-2.767;1.911;-0.763;-4.358;0.514;0.268;-1.131;-14.9;-8.5;25.8;57.38;9362;2018-04-16 22:26:15:627
