sep=;
acc_x;acc_y;acc_z;grav_x;grav_y;grav_z;lin_acc_x;lin_acc_y;lin_acc_z;gyro_x;gyro_y;gyro_z;mag_x;mag_y;mag_z;sound_lvl;time_ms;date_time
1.282;2.936;1.969;3.257;5.244;7.62;-1.975;-2.307;-5.651;0.841;-2.617;-0.186;1.8;-38.2;8.9;51.98;8;2018-04-16 23:32:56:402
1.282;2.936;1.969;3.257;5.244;7.62;-1.975;-2.307;-5.651;0.519;-2.674;0.043;4.2;-37.4;10.4;51.98;18;2018-04-16 23:32:56:412
2.532;2.576;2.55;3.682;5.282;7.397;-0.783;-2.786;-4.22;0.293;-2.768;0.119;4.2;-37.4;10.4;51.98;28;2018-04-16 23:32:56:422
3.225;2.447;4.132;3.682;5.282;7.397;-0.783;-2.786;-4.22;0.222;-2.713;0.138;5.7;-37.6;10.5;51.98;37;2018-04-16 23:32:56:431
3.225;2.447;4.132;4.047;5.296;7.193;-1.065;-2.839;-2.872;0.131;-2.252;0.119;5.7;-37.6;10.5;51.98;47;2018-04-16 23:32:56:441
2.462;2.368;3.869;4.047;5.296;7.193;-1.065;-2.839;-2.872;0.131;-2.252;0.119;7.4;-37.4;10.7;51.98;57;2018-04-16 23:32:56:451
2.081;2.302;3.494;4.184;5.29;7.119;-2.104;-2.988;-3.625;0.007;-1.98;0.18;7.4;-37.1;11.6;51.98;68;2018-04-16 23:32:56:462
2.081;2.302;3.494;4.184;5.29;7.119;-2.104;-2.988;-3.625;-0.161;-1.966;0.319;7.4;-37.1;11.6;51.98;77;2018-04-16 23:32:56:471
-0.034;0.879;2.464;4.512;5.222;6.967;-4.546;-4.344;-4.503;-0.161;-1.966;0.319;8.6;-37.0;10.8;51.98;87;2018-04-16 23:32:56:481
-1.626;-2.138;0.937;4.926;5.081;6.789;-6.552;-7.219;-5.852;-0.407;-2.277;0.733;8.6;-37.0;10.8;51.98;98;2018-04-16 23:32:56:492
-1.626;-2.138;0.937;4.926;5.081;6.789;-6.552;-7.219;-5.852;-0.398;-2.599;1.318;9.3;-36.5;11.1;51.98;108;2018-04-16 23:32:56:502
-2.201;-3.296;-0.797;5.223;4.966;6.651;-7.424;-8.261;-7.448;-0.36;-2.855;1.596;9.3;-36.5;11.1;51.98;117;2018-04-16 23:32:56:511
-1.375;-4.985;-1.767;6.036;4.635;6.185;-6.895;-10.03;-7.387;-0.181;-4.23;2.671;8.8;-36.3;9.4;51.98;127;2018-04-16 23:32:56:521
-1.375;-4.985;-1.767;6.036;4.635;6.185;-6.895;-10.03;-7.387;-0.181;-4.23;2.671;8.8;-36.3;9.4;51.98;138;2018-04-16 23:32:56:532
0.97;-6.541;-0.008;6.504;4.399;5.875;-5.535;-10.94;-5.884;-0.104;-5.519;4.066;9.5;-37.0;11.0;51.98;147;2018-04-16 23:32:56:541
4.708;-7.839;2.771;7.652;3.548;5.002;-2.944;-11.387;-2.231;-0.265;-6.459;5.56;9.5;-37.0;11.0;51.98;158;2018-04-16 23:32:56:552
4.708;-7.839;2.771;7.652;3.548;5.002;-2.944;-11.387;-2.231;-0.236;-6.671;6.379;9.0;-37.0;9.7;51.98;168;2018-04-16 23:32:56:562
7.894;-8.778;3.53;8.652;2.396;3.946;-0.222;-11.619;-0.344;-0.197;-6.544;6.969;8.5;-37.4;10.3;51.98;177;2018-04-16 23:32:56:571
7.894;-8.778;3.53;8.652;2.396;3.946;-0.222;-11.619;-0.344;-0.197;-6.544;6.969;8.5;-37.4;10.3;51.98;187;2018-04-16 23:32:56:581
9.602;-10.63;4.051;9.068;1.663;3.344;0.534;-12.293;0.707;-0.137;-6.228;7.497;7.6;-37.9;9.1;51.98;197;2018-04-16 23:32:56:591
13.696;-11.645;4.488;9.542;0.19;2.257;4.154;-11.835;2.231;0.202;-5.679;8.023;7.6;-37.9;9.1;51.98;208;2018-04-16 23:32:56:602
13.696;-11.645;4.488;9.542;0.19;2.257;4.154;-11.835;2.231;0.202;-5.679;8.023;7.4;-37.4;10.1;51.98;218;2018-04-16 23:32:56:612
17.131;-10.628;4.09;9.628;-1.355;1.281;8.449;-9.072;2.698;0.428;-5.14;8.143;7.4;-37.4;10.1;51.98;228;2018-04-16 23:32:56:622
17.131;-10.628;4.09;9.628;-1.355;1.281;8.449;-9.072;2.698;0.428;-5.14;8.143;7.3;-37.3;10.3;51.98;238;2018-04-16 23:32:56:632
19.354;-10.327;4.025;9.551;-2.031;0.911;9.803;-8.297;3.113;0.335;-4.313;7.797;7.3;-37.3;10.3;51.98;248;2018-04-16 23:32:56:642
20.839;-10.361;5.177;9.198;-3.385;0.314;11.641;-6.976;4.864;-0.266;-2.666;6.961;6.0;-37.4;10.2;51.98;257;2018-04-16 23:32:56:651
20.839;-10.361;5.177;9.198;-3.385;0.314;11.641;-6.976;4.864;-0.555;-1.75;6.509;6.0;-37.4;10.2;51.86;268;2018-04-16 23:32:56:662
21.706;-9.853;6.843;8.704;-4.518;0.025;13.412;-5.093;7.184;-0.759;-0.772;6.056;3.3;-36.9;10.4;51.86;278;2018-04-16 23:32:56:672
21.706;-9.853;6.843;8.704;-4.518;0.025;13.412;-5.093;7.184;-0.759;-0.772;6.056;3.3;-36.9;10.4;51.86;287;2018-04-16 23:32:56:681
22.916;-9.315;7.726;8.422;-5.023;0.042;14.494;-4.292;7.685;-0.909;0.679;5.326;-0.3;-36.1;9.6;51.86;297;2018-04-16 23:32:56:691
22.916;-9.315;7.726;8.422;-5.023;0.042;14.494;-4.292;7.685;-0.909;0.679;5.326;-0.3;-36.1;9.6;51.86;307;2018-04-16 23:32:56:701
23.885;-8.147;8.144;7.922;-5.775;0.232;15.962;-2.372;7.912;-0.869;2.038;4.423;-2.9;-35.0;9.8;51.86;317;2018-04-16 23:32:56:711
24.108;-7.403;7.201;7.43;-6.377;0.542;16.713;-0.908;6.364;-0.784;2.657;3.902;-2.9;-35.0;9.8;51.86;328;2018-04-16 23:32:56:722
23.999;-7.244;6.342;7.43;-6.377;0.542;16.713;-0.908;6.364;-0.683;2.782;3.365;-6.8;-34.2;7.3;51.86;338;2018-04-16 23:32:56:732
23.999;-7.244;6.342;6.982;-6.834;0.853;16.67;0.088;5.732;-0.52;2.636;2.911;-6.8;-34.2;7.3;51.86;348;2018-04-16 23:32:56:742
23.173;-6.557;6.61;6.815;-6.982;0.988;15.332;0.156;5.424;-0.188;2.349;2.343;-9.1;-32.4;8.4;51.86;358;2018-04-16 23:32:56:752
21.052;-7.028;7.057;6.815;-6.982;0.988;15.332;0.156;5.424;-0.188;2.349;2.343;-9.8;-31.8;5.8;51.86;367;2018-04-16 23:32:56:761
21.052;-7.028;7.057;6.815;-6.982;0.988;15.332;0.156;5.424;0.551;1.578;1.769;-9.8;-31.8;5.8;51.86;377;2018-04-16 23:32:56:771
20.219;-6.181;9.73;6.53;-7.201;1.29;13.689;1.021;8.44;0.938;1.558;1.497;-11.4;-31.0;5.1;51.86;387;2018-04-16 23:32:56:781
18.726;-5.988;7.61;6.42;-7.184;1.828;12.306;1.196;5.782;2.303;1.657;0.362;-11.4;-31.0;5.1;51.86;397;2018-04-16 23:32:56:791
18.726;-5.988;7.61;6.42;-7.184;1.828;12.306;1.196;5.782;2.888;1.845;-0.316;-12.6;-31.7;5.0;51.86;407;2018-04-16 23:32:56:801
16.624;-6.19;4.486;6.423;-7.077;2.197;10.201;0.887;2.289;3.02;1.897;-0.772;-12.6;-31.7;5.0;51.86;418;2018-04-16 23:32:56:812
13.408;-6.367;2.198;6.491;-6.804;2.783;6.828;0.599;0.063;2.866;1.502;-1.016;-13.1;-30.9;6.7;51.86;428;2018-04-16 23:32:56:822
13.417;-5.946;1.845;6.491;-6.804;2.783;6.828;0.599;0.063;2.815;1.012;-1.174;-13.1;-30.9;6.7;51.86;437;2018-04-16 23:32:56:831
13.417;-5.946;1.845;6.603;-6.467;3.28;6.338;0.996;-3.332;2.889;0.819;-1.319;-13.1;-29.5;6.4;51.86;447;2018-04-16 23:32:56:841
12.328;-4.869;-0.516;6.603;-6.467;3.28;6.338;0.996;-3.332;2.764;0.257;-1.537;-13.1;-29.5;6.4;51.86;458;2018-04-16 23:32:56:852
9.79;-3.682;-5.242;6.814;-6.064;3.6;2.975;2.382;-8.842;2.764;0.257;-1.537;-13.3;-30.1;5.5;51.86;467;2018-04-16 23:32:56:861
9.79;-3.682;-5.242;6.814;-6.064;3.6;2.975;2.382;-8.842;2.031;-0.617;-1.756;-14.3;-30.6;1.5;51.86;477;2018-04-16 23:32:56:871
8.32;-2.452;-0.322;7.11;-5.76;3.528;1.565;3.551;-1.182;0.733;-1.414;-1.531;-14.3;-30.6;1.5;51.86;487;2018-04-16 23:32:56:881
8.672;-2.368;4.84;7.11;-5.76;3.528;1.565;3.551;-1.182;0.728;-1.567;-1.543;-13.2;-31.1;2.2;51.86;497;2018-04-16 23:32:56:891
7.705;-2.63;4.657;7.458;-5.417;3.349;0.247;2.787;1.308;1.302;-2.366;-1.715;-13.2;-31.1;2.2;51.86;508;2018-04-16 23:32:56:902
7.705;-2.63;4.657;7.458;-5.417;3.349;0.247;2.787;1.308;1.302;-2.366;-1.715;-12.5;-30.8;6.3;51.86;517;2018-04-16 23:32:56:911
7.705;-2.63;4.657;7.458;-5.417;3.349;0.247;2.787;1.308;1.302;-2.366;-1.715;-12.5;-30.8;6.3;51.86;527;2018-04-16 23:32:56:921
7.705;-2.63;4.657;7.458;-5.417;3.349;0.247;2.787;1.308;1.302;-2.366;-1.715;-12.5;-30.8;6.3;51.86;537;2018-04-16 23:32:56:931
7.705;-2.63;4.657;7.458;-5.417;3.349;0.247;2.787;1.308;1.302;-2.366;-1.715;-12.5;-30.8;6.3;51.86;547;2018-04-16 23:32:56:941
7.705;-2.63;4.657;7.458;-5.417;3.349;0.247;2.787;1.308;1.302;-2.366;-1.715;-12.5;-30.8;6.3;51.86;558;2018-04-16 23:32:56:952
7.705;-2.63;4.657;7.458;-5.417;3.349;0.247;2.787;1.308;1.302;-2.366;-1.715;-12.5;-30.8;6.3;51.86;568;2018-04-16 23:32:56:962
7.705;-2.63;4.657;7.458;-5.417;3.349;0.247;2.787;1.308;1.302;-2.366;-1.715;-12.5;-30.8;6.3;51.86;578;2018-04-16 23:32:56:972
7.705;-2.63;4.657;7.458;-5.417;3.349;0.247;2.787;1.308;1.302;-2.366;-1.715;-12.5;-30.8;6.3;51.86;588;2018-04-16 23:32:56:982
7.705;-2.63;4.657;7.458;-5.417;3.349;0.247;2.787;1.308;1.302;-2.366;-1.715;-12.5;-30.8;6.3;51.86;598;2018-04-16 23:32:56:992
7.705;-2.63;4.657;7.458;-5.417;3.349;0.247;2.787;1.308;1.302;-2.366;-1.715;-12.5;-30.8;6.3;51.86;608;2018-04-16 23:32:57:002
7.705;-2.63;4.657;7.458;-5.417;3.349;0.247;2.787;1.308;1.302;-2.366;-1.715;-12.5;-30.8;6.3;51.86;618;2018-04-16 23:32:57:012
7.705;-2.63;4.657;7.458;-5.417;3.349;0.247;2.787;1.308;1.302;-2.366;-1.715;-12.5;-30.8;6.3;51.86;628;2018-04-16 23:32:57:022
7.705;-2.63;4.657;7.458;-5.417;3.349;0.247;2.787;1.308;1.302;-2.366;-1.715;-12.5;-30.8;6.3;51.86;638;2018-04-16 23:32:57:032
7.705;-2.63;4.657;7.458;-5.417;3.349;0.247;2.787;1.308;1.302;-2.366;-1.715;-12.5;-30.8;6.3;51.86;647;2018-04-16 23:32:57:041
7.705;-2.63;4.657;7.458;-5.417;3.349;0.247;2.787;1.308;1.302;-2.366;-1.715;-12.5;-30.8;6.3;51.86;657;2018-04-16 23:32:57:051
7.705;-2.63;4.657;7.458;-5.417;3.349;0.247;2.787;1.308;1.302;-2.366;-1.715;-12.5;-30.8;6.3;51.86;667;2018-04-16 23:32:57:061
7.705;-2.63;4.657;7.458;-5.417;3.349;0.247;2.787;1.308;1.302;-2.366;-1.715;-12.5;-30.8;6.3;51.86;677;2018-04-16 23:32:57:071
7.705;-2.63;4.657;7.458;-5.417;3.349;0.247;2.787;1.308;1.302;-2.366;-1.715;-12.5;-30.8;6.3;51.86;687;2018-04-16 23:32:57:081
4.835;-2.682;9.528;7.856;-4.986;3.096;-5.171;2.392;4.043;2.183;-3.428;-1.946;-11.9;-31.2;8.2;51.86;697;2018-04-16 23:32:57:091
4.835;-2.682;9.528;7.856;-4.986;3.096;-5.171;2.392;4.043;2.183;-3.428;-1.946;-11.9;-31.2;8.2;51.86;707;2018-04-16 23:32:57:101
7.203;-3.093;2.362;9.099;-3.654;-0.13;-1.754;0.214;2.852;-0.098;-0.498;-0.1;-6.0;-17.0;27.6;51.86;717;2018-04-16 23:32:57:111
6.863;-4.101;3.22;9.099;-3.654;-0.13;-1.754;0.214;2.852;-0.171;-0.357;0.092;-6.0;-17.0;27.6;51.86;727;2018-04-16 23:32:57:121
6.863;-4.101;3.22;9.077;-3.708;-0.181;-2.004;-0.402;3.808;-0.134;-0.257;0.298;-6.1;-16.6;26.3;51.86;737;2018-04-16 23:32:57:131
7.987;-4.481;2.88;9.077;-3.708;-0.181;-2.004;-0.402;3.808;0.18;0.024;0.706;-6.1;-16.6;26.3;50.91;748;2018-04-16 23:32:57:142
11.93;-4.09;0.244;9.019;-3.847;-0.141;2.911;-0.243;0.386;0.287;0.188;0.822;-6.0;-16.2;27.6;50.91;758;2018-04-16 23:32:57:152
11.93;-4.09;0.244;9.019;-3.847;-0.141;2.911;-0.243;0.386;0.287;0.188;0.822;-6.0;-16.2;27.6;50.91;767;2018-04-16 23:32:57:161
12.629;-4.165;-0.539;8.995;-3.906;-0.117;3.111;1.376;-0.437;0.39;-0.051;0.292;-6.0;-17.0;27.7;50.91;777;2018-04-16 23:32:57:171
12.107;-2.037;-2.248;8.995;-3.906;-0.117;3.111;1.376;-0.437;0.519;-0.26;-0.175;-6.0;-17.0;27.7;50.91;787;2018-04-16 23:32:57:181
12.107;-2.037;-2.248;9.032;-3.818;-0.139;1.918;0.631;-2.021;0.65;-0.395;-0.505;-5.3;-15.7;28.3;50.91;797;2018-04-16 23:32:57:191
9.178;-3.905;-1.741;9.032;-3.818;-0.139;1.918;0.631;-2.021;0.759;-0.523;-0.888;-5.3;-15.7;28.3;50.91;807;2018-04-16 23:32:57:201
7.885;-5.46;-2.078;9.084;-3.69;-0.194;-1.199;-1.77;-1.885;0.842;-0.539;-0.685;-4.7;-15.4;27.8;50.91;817;2018-04-16 23:32:57:211
7.885;-5.46;-2.078;9.084;-3.69;-0.194;-1.199;-1.77;-1.885;0.668;-0.501;-0.342;-4.7;-15.4;27.8;50.91;827;2018-04-16 23:32:57:221
6.697;-7.123;-2.412;9.076;-3.706;-0.263;-2.871;-3.16;-2.662;0.32;-0.461;0.184;-5.0;-14.9;29.2;50.91;837;2018-04-16 23:32:57:231
5.106;-5.728;-0.195;9.076;-3.706;-0.263;-2.871;-3.16;-2.662;-0.211;-1.102;1.098;-5.0;-14.9;29.2;50.91;847;2018-04-16 23:32:57:241
5.106;-5.728;-0.195;8.893;-4.095;-0.566;-4.021;-2.099;-0.028;-0.386;-1.53;2.216;-5.0;-15.4;28.1;50.91;857;2018-04-16 23:32:57:251
4.969;-6.528;-0.582;8.682;-4.493;-0.779;-3.689;-2.299;-0.053;-0.498;-1.789;3.451;-5.0;-15.4;28.1;50.91;867;2018-04-16 23:32:57:261
5.539;-7.087;-1.63;8.682;-4.493;-0.779;-3.689;-2.299;-0.053;-0.682;-1.962;4.75;-4.3;-15.1;29.0;50.91;878;2018-04-16 23:32:57:272
7.247;-7.052;-1.623;8.029;-5.492;-1.24;-0.782;-1.56;-0.383;-0.894;-2.216;6.049;-4.3;-15.1;29.0;50.91;888;2018-04-16 23:32:57:282
7.247;-7.052;-1.623;8.029;-5.492;-1.24;-0.782;-1.56;-0.383;-0.987;-2.606;7.158;-4.7;-15.0;28.2;50.91;898;2018-04-16 23:32:57:292
8.337;-6.2;-2.087;6.961;-6.663;-1.821;1.218;0.765;-0.075;-0.972;-3.064;8.002;-4.7;-15.0;28.2;50.91;907;2018-04-16 23:32:57:301
8.188;-5.246;1.294;6.961;-6.663;-1.821;1.218;0.765;-0.075;-0.788;-3.533;8.594;-4.8;-15.0;29.2;50.91;917;2018-04-16 23:32:57:311
8.188;-5.246;1.294;5.605;-7.741;-2.196;2.984;4.418;8.299;-0.191;-3.406;8.771;-4.8;-15.0;29.2;50.91;927;2018-04-16 23:32:57:321
7.149;-3.408;3.069;5.605;-7.741;-2.196;2.984;4.418;8.299;1.415;-1.598;7.89;-5.3;-15.3;28.7;50.91;937;2018-04-16 23:32:57:331
2.713;-6.008;-4.341;4.36;-8.588;-1.847;-1.647;2.579;-2.493;2.911;-0.867;7.219;-5.3;-15.3;28.7;50.91;947;2018-04-16 23:32:57:341
2.713;-6.008;-4.341;4.36;-8.588;-1.847;-1.647;2.579;-2.493;3.453;-1.972;7.39;-5.2;-15.4;28.7;50.91;958;2018-04-16 23:32:57:352
2.255;-3.855;0.195;2.981;-9.243;-1.36;-0.679;6.22;2.739;3.84;-2.812;7.339;-5.2;-15.4;28.7;50.91;968;2018-04-16 23:32:57:362
2.205;-1.851;2.68;2.981;-9.243;-1.36;-0.679;6.22;2.739;4.131;-2.79;6.688;-5.4;-14.7;29.1;50.91;978;2018-04-16 23:32:57:372
2.205;-1.851;2.68;1.844;-9.61;-0.648;-0.34;7.061;1.795;4.332;-2.305;5.746;-5.4;-14.7;29.1;50.91;988;2018-04-16 23:32:57:382
1.359;-2.455;0.985;1.844;-9.61;-0.648;-0.34;7.061;1.795;4.344;-1.822;5.231;-5.3;-14.1;29.3;50.91;997;2018-04-16 23:32:57:391
1.536;-1.61;-1.269;0.89;-9.766;0.063;0.646;8.156;-1.332;3.972;-1.674;4.91;-5.3;-14.1;29.3;50.91;1008;2018-04-16 23:32:57:402
1.536;-1.61;-1.269;0.89;-9.766;0.063;0.646;8.156;-1.332;3.26;-1.82;4.453;-5.3;-12.2;29.5;50.91;1017;2018-04-16 23:32:57:411
0.903;-2.2;0.132;0.121;-9.796;0.449;0.711;7.568;-0.127;2.148;-2.116;3.969;-5.3;-12.2;29.5;50.91;1027;2018-04-16 23:32:57:421
0.566;-2.251;1.296;0.121;-9.796;0.449;0.711;7.568;-0.127;0.876;-1.803;3.729;-5.1;-7.7;30.9;50.91;1037;2018-04-16 23:32:57:431
0.566;-2.251;1.296;-0.567;-9.78;0.456;0.837;7.39;1.265;-0.017;-1.416;3.587;-5.1;-7.7;30.9;50.4;1047;2018-04-16 23:32:57:441
0.218;-2.386;2.051;-0.567;-9.78;0.456;0.837;7.39;1.265;-0.528;-1.122;3.489;-3.8;-5.5;30.5;50.4;1057;2018-04-16 23:32:57:451
0.503;-2.398;4.533;-1.239;-9.722;0.348;1.741;7.324;4.185;-0.681;-1.053;3.447;-3.8;-5.5;30.5;50.4;1067;2018-04-16 23:32:57:461
0.503;-2.398;4.533;-1.239;-9.722;0.348;1.741;7.324;4.185;-0.539;-0.946;3.39;-3.2;-5.0;30.6;50.4;1077;2018-04-16 23:32:57:471
0.45;-5.538;5.131;-1.855;-9.623;0.361;0.08;-4.843;4.876;0.198;-0.476;3.186;-3.2;-5.0;30.6;50.4;1087;2018-04-16 23:32:57:481
-17.607;-39.185;9.169;-1.855;-9.623;0.361;0.08;-4.843;4.876;0.558;-0.139;3.83;-2.2;-3.7;32.8;50.4;1097;2018-04-16 23:32:57:491
-17.607;-39.185;9.169;-2.958;-9.341;0.401;-10.28;-29.844;9.109;0.252;1.326;7.295;-2.2;-3.7;32.8;50.4;1107;2018-04-16 23:32:57:501
0.609;-39.185;3.882;-2.958;-9.341;0.401;-10.28;-29.844;9.109;-0.65;2.981;9.884;-2.6;-3.3;34.2;50.4;1117;2018-04-16 23:32:57:511
5.856;-23.136;2.442;-3.935;-8.982;-0.11;9.791;-14.155;2.552;-2.366;1.846;5.478;-2.6;-3.3;34.2;50.4;1127;2018-04-16 23:32:57:521
5.856;-23.136;2.442;-3.935;-8.982;-0.11;9.791;-14.155;2.552;-3.552;0.953;-1.373;-3.4;-3.3;32.1;50.4;1138;2018-04-16 23:32:57:532
-10.619;-19.389;5.224;-3.412;-9.164;-0.735;-6.451;-6.361;3.517;-2.936;1.326;-3.076;-3.4;-3.3;32.1;50.4;1147;2018-04-16 23:32:57:541
-5.783;-6.627;-11.571;-3.412;-9.164;-0.735;-6.451;-6.361;3.517;-2.209;1.339;-2.431;-3.5;-3.8;33.3;50.4;1158;2018-04-16 23:32:57:552
-5.783;-6.627;-11.571;-3.162;-9.271;-0.473;-0.137;6.619;-6.714;0.11;-3.801;-1.613;-3.5;-3.8;33.3;50.4;1168;2018-04-16 23:32:57:562
-2.778;-2.192;-3.012;-3.162;-9.271;-0.473;-0.137;6.619;-6.714;2.034;-8.395;-1.135;-4.4;-4.6;31.0;50.4;1178;2018-04-16 23:32:57:572
-3.573;-3.863;3.084;-2.985;-9.322;0.606;-0.588;5.458;2.478;2.718;-9.713;-0.914;-4.4;-4.6;31.0;50.4;1188;2018-04-16 23:32:57:582
-3.573;-3.863;3.084;-2.985;-9.322;0.606;-0.588;5.458;2.478;2.814;-9.115;-0.667;-0.4;-4.0;31.8;50.4;1198;2018-04-16 23:32:57:592
-5.295;-6.033;4.373;-2.743;-9.283;1.572;-3.181;2.312;3.225;2.754;-8.015;-0.426;-0.4;-4.0;31.8;50.4;1208;2018-04-16 23:32:57:602
-7.23;-8.599;1.966;-2.743;-9.283;1.572;-3.181;2.312;3.225;2.473;-6.402;-0.241;2.8;-3.0;30.1;50.4;1218;2018-04-16 23:32:57:612
-7.23;-8.599;1.966;-2.541;-9.227;2.14;-6.609;-0.814;-10.995;1.878;-4.391;-0.187;2.8;-3.0;30.1;50.4;1228;2018-04-16 23:32:57:622
-9.571;-10.16;-9.728;-2.541;-9.227;2.14;-6.609;-0.814;-10.995;0.842;-3.362;-0.177;5.6;-2.2;30.8;50.4;1238;2018-04-16 23:32:57:632
-8.744;-9.224;-5.021;-2.461;-9.246;2.152;-6.283;0.022;-7.172;-0.494;-2.158;0.005;5.6;-2.2;30.8;50.4;1248;2018-04-16 23:32:57:642
-8.744;-9.224;-5.021;-2.461;-9.246;2.152;-6.283;0.022;-7.172;-1.377;-0.728;0.395;7.2;-1.2;30.3;50.4;1258;2018-04-16 23:32:57:652
-5.611;-8.146;1.267;-2.637;-9.268;1.821;-2.144;1.219;0.841;-1.648;0.607;0.762;7.2;-1.2;30.3;50.4;1268;2018-04-16 23:32:57:662
-3.423;-7.736;4.245;-2.637;-9.268;1.821;-2.144;1.219;0.841;-1.569;1.885;0.889;8.0;-1.4;29.5;50.4;1278;2018-04-16 23:32:57:672
-3.423;-7.736;4.245;-2.878;-9.265;1.429;-0.172;1.557;2.828;-1.339;3.101;0.782;8.0;-1.4;29.5;50.4;1287;2018-04-16 23:32:57:681
-3.266;-8.267;3.816;-2.878;-9.265;1.429;-0.172;1.557;2.828;-1.092;4.107;0.52;7.8;-1.7;29.2;50.4;1298;2018-04-16 23:32:57:692
-3.778;-9.705;2.029;-3.054;-9.264;1.01;-0.724;-0.441;1.019;-0.821;4.76;0.303;7.8;-1.7;29.2;50.4;1308;2018-04-16 23:32:57:702
-3.778;-9.705;2.029;-3.054;-9.264;1.01;-0.724;-0.441;1.019;-0.502;4.97;0.25;6.5;-2.4;31.6;50.4;1318;2018-04-16 23:32:57:712
-3.083;-10.058;0.783;-3.191;-9.247;0.686;0.341;-0.798;-0.005;-0.162;4.759;0.326;6.5;-2.4;31.6;50.4;1327;2018-04-16 23:32:57:721
-2.624;-10.056;0.376;-3.191;-9.247;0.686;0.341;-0.798;-0.005;0.109;4.36;0.34;3.6;-3.0;30.6;50.4;1337;2018-04-16 23:32:57:731
-2.624;-10.056;0.376;-3.284;-9.228;0.48;0.642;-0.959;-0.265;0.274;3.94;0.272;3.6;-3.0;30.6;67.63;1347;2018-04-16 23:32:57:741
-2.605;-10.168;0.103;-3.284;-9.228;0.48;0.642;-0.959;-0.265;0.338;3.543;0.202;2.2;-3.1;31.3;67.63;1357;2018-04-16 23:32:57:751
-2.367;-9.855;-0.195;-3.341;-9.213;0.344;0.975;-0.641;-0.539;0.404;2.865;0.21;2.2;-3.1;31.3;67.63;1368;2018-04-16 23:32:57:762
-2.367;-9.855;-0.195;-3.341;-9.213;0.344;0.975;-0.641;-0.539;0.406;2.377;0.21;1.2;-2.1;32.3;67.63;1377;2018-04-16 23:32:57:771
-2.16;-9.607;-0.587;-3.379;-9.202;0.265;1.251;-0.36;-0.822;0.341;1.818;0.186;1.2;-2.1;32.3;67.63;1388;2018-04-16 23:32:57:782
-2.198;-9.582;-0.314;-3.379;-9.202;0.265;1.251;-0.36;-0.822;0.248;1.282;0.158;0.8;-2.8;33.0;67.63;1398;2018-04-16 23:32:57:792
-2.198;-9.582;-0.314;-3.403;-9.194;0.232;1.266;-0.424;-0.372;0.15;0.778;0.165;0.8;-2.8;33.0;67.63;1408;2018-04-16 23:32:57:802
-2.016;-9.589;-0.054;-3.403;-9.194;0.232;1.266;-0.424;-0.372;0.053;0.316;0.182;0.4;-2.0;32.9;67.63;1418;2018-04-16 23:32:57:812
-1.832;-9.531;0.426;-3.419;-9.188;0.23;1.588;-0.343;0.196;-0.038;-0.071;0.177;0.4;-2.0;32.9;67.63;1428;2018-04-16 23:32:57:822
-1.832;-9.531;0.426;-3.419;-9.188;0.23;1.588;-0.343;0.196;-0.105;-0.354;0.165;0.0;-3.1;32.7;67.63;1438;2018-04-16 23:32:57:832
-1.681;-9.506;0.845;-3.43;-9.184;0.246;1.804;-0.29;0.636;-0.15;-0.546;0.162;0.0;-3.1;32.7;67.63;1448;2018-04-16 23:32:57:842
-1.557;-9.408;1.009;-3.43;-9.184;0.246;1.804;-0.29;0.636;-0.183;-0.678;0.149;0.4;-2.7;33.1;67.63;1458;2018-04-16 23:32:57:852
-1.557;-9.408;1.009;-3.432;-9.183;0.265;1.921;-0.155;0.956;-0.216;-0.755;0.125;0.4;-2.7;33.1;67.63;1468;2018-04-16 23:32:57:862
-1.516;-9.311;1.39;-3.432;-9.183;0.265;1.921;-0.155;0.956;-0.243;-0.768;0.103;0.6;-3.1;31.9;67.63;1478;2018-04-16 23:32:57:872
-1.626;-9.26;1.718;-3.425;-9.185;0.284;1.799;-0.075;1.434;-0.221;-0.667;0.054;0.6;-3.1;31.9;67.63;1488;2018-04-16 23:32:57:882
-1.626;-9.26;1.718;-3.425;-9.185;0.284;1.799;-0.075;1.434;-0.221;-0.667;0.054;0.7;-2.8;31.6;67.63;1498;2018-04-16 23:32:57:892
-2.028;-9.346;1.897;-3.407;-9.191;0.309;1.277;-0.171;1.566;-0.13;-0.491;-0.009;0.7;-2.8;31.6;67.63;1508;2018-04-16 23:32:57:902
-2.356;-9.306;1.668;-3.407;-9.191;0.309;1.277;-0.171;1.566;-0.046;-0.352;-0.038;1.2;-2.7;31.5;67.63;1518;2018-04-16 23:32:57:912
-2.614;-9.29;1.39;-3.384;-9.198;0.341;0.77;-0.092;1.049;0.024;-0.222;-0.066;1.1;-2.4;31.7;67.63;1528;2018-04-16 23:32:57:922
-2.614;-9.29;1.39;-3.384;-9.198;0.341;0.77;-0.092;1.049;0.094;-0.084;-0.099;1.1;-2.4;31.7;67.63;1537;2018-04-16 23:32:57:931
-2.959;-9.26;1.064;-3.361;-9.205;0.37;0.33;-0.027;0.615;0.112;-0.021;-0.105;0.7;-2.8;32.2;67.63;1548;2018-04-16 23:32:57:942
-3.159;-9.237;0.825;-3.361;-9.205;0.37;0.33;-0.027;0.615;0.112;-0.021;-0.105;0.7;-2.8;32.2;67.63;1558;2018-04-16 23:32:57:952
-3.159;-9.237;0.825;-3.339;-9.212;0.393;0.01;-0.06;0.23;0.121;0.048;-0.116;0.7;-2.9;32.1;67.63;1567;2018-04-16 23:32:57:961
-3.419;-9.311;0.468;-3.339;-9.212;0.393;0.01;-0.06;0.23;0.106;0.05;-0.116;0.7;-2.9;32.1;67.63;1578;2018-04-16 23:32:57:972
-3.563;-9.329;0.172;-3.32;-9.219;0.407;-0.242;-0.111;-0.235;0.086;-0.002;-0.103;0.8;-2.7;32.3;67.63;1588;2018-04-16 23:32:57:982
-3.563;-9.329;0.172;-3.32;-9.219;0.407;-0.242;-0.111;-0.235;0.086;-0.002;-0.103;0.8;-2.7;32.3;67.63;1597;2018-04-16 23:32:57:991
-3.649;-9.26;-0.002;-3.305;-9.223;0.422;-0.357;0.003;-0.449;0.045;-0.143;-0.089;0.3;-2.8;32.4;67.63;1607;2018-04-16 23:32:58:001
-3.707;-9.14;-0.209;-3.305;-9.223;0.422;-0.357;0.003;-0.449;0.02;-0.261;-0.075;0.3;-2.8;32.4;67.63;1618;2018-04-16 23:32:58:012
-3.707;-9.14;-0.209;-3.295;-9.226;0.447;-0.505;0.173;-1.723;0.044;-0.552;-0.055;0.0;-2.8;32.6;67.63;1628;2018-04-16 23:32:58:022
-3.915;-9.045;-1.447;-3.295;-9.226;0.447;-0.505;0.173;-1.723;0.044;-0.552;-0.055;-0.2;-2.8;32.6;67.63;1637;2018-04-16 23:32:58:031
-4.118;-9.088;-0.293;-3.275;-9.222;0.625;-0.843;0.134;-0.918;0.562;-2.01;-0.038;-0.2;-2.8;32.6;67.63;1647;2018-04-16 23:32:58:041
-4.118;-9.088;-0.293;-3.275;-9.222;0.625;-0.843;0.134;-0.918;0.665;-2.302;0.016;-0.3;-2.8;32.7;51.03;1657;2018-04-16 23:32:58:051
-3.888;-9.072;0.646;-3.254;-9.208;0.888;-0.576;0.111;-0.202;0.602;-2.178;0.062;-0.3;-2.8;32.7;51.03;1668;2018-04-16 23:32:58:062
-3.676;-9.172;0.528;-3.254;-9.208;0.888;-0.576;0.111;-0.202;0.602;-2.178;0.062;-0.2;-2.8;32.7;51.03;1677;2018-04-16 23:32:58:071
-3.676;-9.172;0.528;-3.245;-9.194;1.052;-0.241;-0.038;-0.859;0.325;-1.555;0.11;-0.2;-2.8;32.7;51.03;1688;2018-04-16 23:32:58:082
-3.361;-9.278;0.043;-3.245;-9.194;1.052;-0.241;-0.038;-0.859;0.231;-1.263;0.139;0.0;-2.7;32.6;51.03;1698;2018-04-16 23:32:58:092
-3.081;-9.37;-0.135;-3.244;-9.182;1.159;0.245;-0.208;-1.285;0.224;-1.144;0.139;0.0;-2.7;32.5;51.03;1707;2018-04-16 23:32:58:101
-2.855;-9.404;-0.019;-3.244;-9.182;1.159;0.245;-0.208;-1.285;0.224;-1.144;0.139;0.2;-2.7;32.5;51.03;1718;2018-04-16 23:32:58:112
-2.716;-9.424;0.186;-3.242;-9.177;1.197;0.448;-0.251;-1.154;0.197;-0.955;0.123;0.3;-2.7;32.5;51.03;1727;2018-04-16 23:32:58:121
-2.716;-9.424;0.186;-3.242;-9.177;1.197;0.448;-0.251;-1.154;0.026;-0.244;0.072;0.8;-2.6;32.3;51.03;1738;2018-04-16 23:32:58:132
-2.553;-9.311;0.515;-3.246;-9.174;1.213;0.717;-0.093;-0.699;-0.1;0.189;0.048;0.8;-2.6;32.3;51.03;1747;2018-04-16 23:32:58:141
-2.573;-9.272;0.469;-3.246;-9.174;1.213;0.717;-0.093;-0.699;-0.208;0.567;0.031;0.8;-2.6;32.3;51.03;1758;2018-04-16 23:32:58:152
-2.573;-9.272;0.469;-3.261;-9.181;1.114;0.617;-0.135;-0.684;-0.282;0.838;0.017;1.2;-2.5;32.3;51.03;1767;2018-04-16 23:32:58:161
-2.692;-9.318;0.421;-3.261;-9.181;1.114;0.617;-0.135;-0.684;-0.282;0.838;0.017;1.2;-2.5;32.3;51.03;1778;2018-04-16 23:32:58:172
-2.84;-9.389;0.463;-3.278;-9.191;0.979;0.438;-0.198;-0.516;-0.325;1.056;-0.006;1.5;-2.4;32.4;51.03;1787;2018-04-16 23:32:58:181
-2.84;-9.389;0.463;-3.278;-9.191;0.979;0.438;-0.198;-0.516;-0.329;1.118;-0.017;1.5;-2.4;32.4;51.03;1798;2018-04-16 23:32:58:192
-2.948;-9.339;0.583;-3.29;-9.2;0.842;0.324;-0.125;-0.226;-0.316;1.159;-0.029;1.8;-2.4;32.4;51.03;1808;2018-04-16 23:32:58:202
-3.059;-9.311;0.654;-3.29;-9.2;0.842;0.324;-0.125;-0.226;-0.316;1.159;-0.029;1.8;-2.4;32.4;51.03;1818;2018-04-16 23:32:58:212
-3.089;-9.347;0.656;-3.299;-9.208;0.709;0.211;-0.139;-0.053;-0.299;1.168;-0.037;2.1;-2.4;32.5;51.03;1827;2018-04-16 23:32:58:221
-3.089;-9.347;0.656;-3.299;-9.208;0.709;0.211;-0.139;-0.053;-0.28;1.15;-0.038;2.1;-2.4;32.5;51.03;1838;2018-04-16 23:32:58:232
-3.087;-9.327;0.643;-3.299;-9.208;0.709;0.211;-0.139;-0.053;-0.243;1.098;-0.034;2.2;-2.3;32.5;51.03;1848;2018-04-16 23:32:58:242
-3.091;-9.331;0.639;-3.305;-9.214;0.593;0.214;-0.118;0.046;-0.219;1.06;-0.031;2.3;-2.3;32.5;51.03;1860;2018-04-16 23:32:58:254
-3.091;-9.331;0.639;-3.306;-9.219;0.506;0.254;-0.09;0.116;-0.142;0.926;-0.035;2.3;-2.3;32.5;51.03;1868;2018-04-16 23:32:58:262
-3.063;-9.256;0.571;-3.306;-9.219;0.506;0.254;-0.09;0.116;-0.142;0.926;-0.035;2.4;-2.3;32.5;51.03;1877;2018-04-16 23:32:58:271
-3.063;-9.256;0.571;-3.304;-9.222;0.456;0.257;0.009;0.075;-0.035;0.702;-0.039;2.4;-2.3;32.5;51.03;1888;2018-04-16 23:32:58:282
-3.054;-9.227;0.5;-3.304;-9.222;0.456;0.257;0.009;0.075;0.034;0.486;-0.04;2.5;-2.3;32.4;51.03;1897;2018-04-16 23:32:58:291
-3.092;-9.228;0.433;-3.298;-9.225;0.439;0.206;-0.003;-0.006;0.062;0.34;-0.039;2.5;-2.3;32.4;51.03;1907;2018-04-16 23:32:58:301
-3.092;-9.228;0.433;-3.298;-9.225;0.439;0.206;-0.003;-0.006;0.062;0.34;-0.039;2.5;-2.3;32.4;51.03;1918;2018-04-16 23:32:58:312
-3.116;-9.203;0.411;-3.298;-9.225;0.439;0.206;-0.003;-0.006;0.068;0.083;-0.029;2.5;-2.3;32.4;51.03;1928;2018-04-16 23:32:58:322
-3.104;-9.23;0.442;-3.292;-9.227;0.443;0.178;0.015;-0.037;0.068;0.083;-0.029;2.6;-2.3;32.4;51.03;1937;2018-04-16 23:32:58:331
-3.104;-9.23;0.442;-3.286;-9.229;0.453;0.182;-0.018;0.054;0.015;-0.095;-0.017;2.6;-2.3;32.4;51.03;1948;2018-04-16 23:32:58:342
-3.09;-9.237;0.529;-3.286;-9.229;0.453;0.182;-0.018;0.054;-0.022;-0.155;-0.011;2.6;-2.2;32.3;46.29;1959;2018-04-16 23:32:58:353
-3.078;-9.228;0.625;-3.281;-9.23;0.458;0.203;0.002;0.167;-0.054;-0.2;-0.009;2.6;-2.2;32.3;46.29;1968;2018-04-16 23:32:58:362
-3.078;-9.228;0.625;-3.281;-9.23;0.458;0.203;0.002;0.167;-0.088;-0.243;-0.002;2.5;-2.3;32.4;46.29;1978;2018-04-16 23:32:58:372
-3.086;-9.225;0.7;-3.276;-9.232;0.459;0.175;-0.012;0.246;-0.099;-0.26;0.001;2.5;-2.3;32.4;46.29;1987;2018-04-16 23:32:58:381
-3.136;-9.285;0.704;-3.276;-9.232;0.459;0.175;-0.012;0.246;-0.098;-0.275;0.006;2.3;-2.2;32.5;46.29;1998;2018-04-16 23:32:58:392
-3.136;-9.285;0.704;-3.274;-9.232;0.463;0.111;-0.04;0.215;-0.09;-0.293;0.007;2.3;-2.3;32.5;46.29;2008;2018-04-16 23:32:58:402
-3.183;-9.28;0.681;-3.274;-9.232;0.463;0.111;-0.04;0.215;-0.09;-0.293;0.007;2.3;-2.3;32.5;46.29;2018;2018-04-16 23:32:58:412
-3.236;-9.272;0.626;-3.272;-9.233;0.473;0.036;-0.039;0.153;-0.067;-0.324;0.011;2.0;-2.3;32.5;46.29;2028;2018-04-16 23:32:58:422
-3.236;-9.272;0.626;-3.272;-9.233;0.473;0.036;-0.039;0.153;-0.038;-0.363;0.012;2.0;-2.3;32.5;46.29;2038;2018-04-16 23:32:58:432
-3.268;-9.263;0.535;-3.27;-9.232;0.494;-0.012;-0.03;0.01;-0.013;-0.404;0.009;1.8;-2.4;32.6;46.29;2047;2018-04-16 23:32:58:441
-3.276;-9.234;0.421;-3.27;-9.232;0.494;-0.012;-0.03;0.01;-0.013;-0.404;0.009;1.8;-2.4;32.6;46.29;2058;2018-04-16 23:32:58:452
-3.241;-9.199;0.324;-3.268;-9.231;0.534;0.027;0.032;-0.21;0.04;-0.5;0.018;1.6;-2.5;32.6;46.29;2067;2018-04-16 23:32:58:461
-3.241;-9.199;0.324;-3.268;-9.231;0.534;0.027;0.032;-0.21;0.12;-0.668;0.022;1.6;-2.5;32.6;46.29;2077;2018-04-16 23:32:58:471
-3.194;-9.16;0.388;-3.263;-9.228;0.605;0.089;0.058;-0.174;0.166;-0.751;0.024;1.4;-2.5;32.6;46.29;2088;2018-04-16 23:32:58:482
-3.15;-9.255;0.503;-3.263;-9.228;0.605;0.089;0.058;-0.174;0.166;-0.751;0.024;1.4;-2.5;32.6;46.29;2097;2018-04-16 23:32:58:491
-3.15;-9.255;0.503;-3.259;-9.224;0.685;0.134;-0.104;-0.205;0.182;-0.761;0.032;1.3;-2.5;32.6;46.29;2108;2018-04-16 23:32:58:502
-3.102;-9.352;0.453;-3.259;-9.224;0.685;0.134;-0.104;-0.205;0.169;-0.711;0.035;1.3;-2.5;32.6;46.29;2118;2018-04-16 23:32:58:512
-3.01;-9.37;0.357;-3.254;-9.22;0.752;0.245;-0.149;-0.395;0.144;-0.63;0.04;1.3;-2.5;32.6;46.29;2128;2018-04-16 23:32:58:522
-3.01;-9.37;0.357;-3.254;-9.22;0.752;0.245;-0.149;-0.395;0.144;-0.63;0.04;1.3;-2.5;32.6;46.29;2138;2018-04-16 23:32:58:532
-2.951;-9.336;0.31;-3.252;-9.219;0.778;0.301;-0.117;-0.468;0.128;-0.585;0.04;1.3;-2.5;32.6;46.29;2148;2018-04-16 23:32:58:542
-2.951;-9.336;0.31;-3.252;-9.219;0.778;0.301;-0.117;-0.468;0.128;-0.585;0.04;1.3;-2.5;32.5;46.29;2157;2018-04-16 23:32:58:551
-2.842;-9.294;0.341;-3.242;-9.216;0.846;0.402;-0.082;-0.485;0.095;-0.428;0.02;1.4;-2.4;32.5;46.29;2168;2018-04-16 23:32:58:562
-2.837;-9.25;0.394;-3.242;-9.216;0.846;0.402;-0.082;-0.485;0.056;-0.255;0.006;1.4;-2.4;32.5;46.29;2177;2018-04-16 23:32:58:571
-2.837;-9.25;0.394;-3.236;-9.217;0.86;0.343;-0.045;-0.478;0.02;-0.122;-0.002;1.5;-2.4;32.5;46.29;2188;2018-04-16 23:32:58:582
-2.938;-9.27;0.388;-3.236;-9.217;0.86;0.343;-0.045;-0.478;-0.012;0.013;-0.01;1.5;-2.4;32.5;46.29;2197;2018-04-16 23:32:58:591
-3.057;-9.3;0.413;-3.233;-9.22;0.845;0.176;-0.081;-0.432;-0.039;0.138;-0.016;1.7;-2.4;32.7;46.29;2208;2018-04-16 23:32:58:602
-3.057;-9.3;0.413;-3.233;-9.22;0.845;0.176;-0.081;-0.432;-0.039;0.138;-0.016;1.8;-2.4;32.7;46.29;2218;2018-04-16 23:32:58:612
-3.123;-9.295;0.418;-3.233;-9.221;0.83;0.11;-0.074;-0.413;-0.062;0.244;-0.022;1.8;-2.4;32.7;46.29;2228;2018-04-16 23:32:58:622
-3.22;-9.298;0.524;-3.235;-9.224;0.786;0.014;-0.074;-0.262;-0.1;0.429;-0.021;2.0;-2.4;32.7;46.29;2237;2018-04-16 23:32:58:631
-3.22;-9.298;0.524;-3.235;-9.224;0.786;0.014;-0.074;-0.262;-0.126;0.544;-0.011;2.0;-2.4;32.7;46.29;2248;2018-04-16 23:32:58:642
-3.2;-9.258;0.536;-3.241;-9.227;0.724;0.045;0.004;-0.202;-0.126;0.544;-0.011;2.2;-2.3;32.8;46.29;2257;2018-04-16 23:32:58:651
-3.151;-9.205;0.476;-3.241;-9.227;0.724;0.045;0.004;-0.202;-0.132;0.597;-0.005;2.2;-2.3;32.8;47.67;2268;2018-04-16 23:32:58:662
-3.151;-9.205;0.476;-3.248;-9.229;0.662;0.126;0.021;-0.207;-0.117;0.589;0.0;2.3;-2.3;32.7;47.67;2277;2018-04-16 23:32:58:671
-3.091;-9.215;0.462;-3.248;-9.229;0.662;0.126;0.021;-0.207;-0.098;0.555;0.001;2.3;-2.3;32.7;47.67;2288;2018-04-16 23:32:58:682
-3.044;-9.268;0.505;-3.253;-9.231;0.612;0.209;-0.037;-0.107;-0.079;0.512;0.002;2.5;-2.2;32.7;47.67;2297;2018-04-16 23:32:58:691
-3.044;-9.268;0.505;-3.253;-9.231;0.612;0.209;-0.037;-0.107;-0.076;0.481;-0.001;2.5;-2.2;32.7;47.67;2308;2018-04-16 23:32:58:702
-2.998;-9.275;0.514;-3.256;-9.233;0.566;0.272;-0.065;-0.054;-0.089;0.445;-0.001;2.6;-2.2;32.7;47.67;2318;2018-04-16 23:32:58:712
-2.975;-9.304;0.476;-3.257;-9.234;0.541;0.282;-0.07;-0.065;-0.098;0.413;0.001;2.6;-2.2;32.7;47.67;2327;2018-04-16 23:32:58:721
-2.975;-9.304;0.476;-3.257;-9.234;0.541;0.282;-0.07;-0.065;-0.098;0.413;0.001;2.7;-2.1;32.7;47.67;2338;2018-04-16 23:32:58:732
-2.914;-9.317;0.417;-3.257;-9.234;0.541;0.282;-0.07;-0.065;-0.094;0.327;0.001;2.7;-2.1;32.7;47.67;2348;2018-04-16 23:32:58:742
-2.914;-9.317;0.417;-3.258;-9.236;0.502;0.365;-0.075;-0.068;-0.073;0.209;-0.001;2.7;-2.1;32.7;47.67;2358;2018-04-16 23:32:58:752
-2.88;-9.252;0.494;-3.256;-9.238;0.479;0.374;-0.014;0.053;-0.064;0.136;0.001;2.7;-2.1;32.7;47.67;2368;2018-04-16 23:32:58:762
-2.911;-9.22;0.619;-3.256;-9.238;0.479;0.374;-0.014;0.053;-0.044;0.071;-0.002;2.7;-2.1;32.8;47.67;2378;2018-04-16 23:32:58:772
-2.911;-9.22;0.619;-3.253;-9.239;0.468;0.315;0.054;0.187;-0.044;0.071;-0.002;2.7;-2.1;32.8;47.67;2388;2018-04-16 23:32:58:782
-2.956;-9.172;0.673;-3.253;-9.239;0.468;0.315;0.054;0.187;-0.033;0.05;-0.004;2.7;-2.1;32.8;47.67;2397;2018-04-16 23:32:58:791
-3.025;-9.185;0.685;-3.25;-9.241;0.463;0.225;0.055;0.222;-0.021;0.044;-0.006;2.7;-2.1;32.8;47.67;2408;2018-04-16 23:32:58:802
-3.025;-9.185;0.685;-3.25;-9.241;0.463;0.225;0.055;0.222;-0.021;0.044;-0.006;2.6;-2.1;32.7;47.67;2418;2018-04-16 23:32:58:812
-3.111;-9.248;0.663;-3.248;-9.242;0.461;0.131;-0.016;0.178;-0.009;0.042;-0.005;2.6;-2.1;32.7;47.67;2427;2018-04-16 23:32:58:821
-3.16;-9.286;0.618;-3.248;-9.242;0.461;0.131;-0.016;0.178;-0.004;0.035;-0.005;2.5;-2.2;32.8;47.67;2438;2018-04-16 23:32:58:832
-3.191;-9.303;0.552;-3.247;-9.242;0.461;0.056;-0.061;0.091;0.005;0.011;0.001;2.5;-2.2;32.8;47.67;2448;2018-04-16 23:32:58:842
-3.191;-9.303;0.552;-3.247;-9.242;0.461;0.056;-0.061;0.091;0.011;-0.022;0.01;2.4;-2.2;32.9;47.67;2459;2018-04-16 23:32:58:853
-3.179;-9.298;0.46;-3.248;-9.241;0.466;0.085;-0.028;-0.029;0.013;-0.067;0.011;2.4;-2.2;32.9;47.67;2468;2018-04-16 23:32:58:862
-3.179;-9.298;0.46;-3.248;-9.241;0.466;0.085;-0.028;-0.029;0.013;-0.067;0.011;2.2;-2.2;33.0;47.67;2478;2018-04-16 23:32:58:872
-3.085;-9.195;0.387;-3.248;-9.241;0.48;0.163;0.046;-0.093;0.027;-0.192;0.018;2.2;-2.2;33.0;47.67;2488;2018-04-16 23:32:58:882
-3.085;-9.195;0.387;-3.248;-9.241;0.48;0.163;0.046;-0.093;0.027;-0.192;0.018;2.2;-2.2;33.0;47.67;2497;2018-04-16 23:32:58:891
-3.075;-9.183;0.411;-3.248;-9.239;0.504;0.183;0.065;-0.072;0.038;-0.312;0.027;2.1;-2.2;32.9;47.67;2507;2018-04-16 23:32:58:901
-3.067;-9.219;0.435;-3.248;-9.239;0.504;0.183;0.065;-0.072;0.049;-0.352;0.029;2.1;-2.2;32.9;47.67;2517;2018-04-16 23:32:58:911
-3.068;-9.258;0.439;-3.249;-9.237;0.539;0.181;-0.021;-0.099;0.06;-0.386;0.033;2.0;-2.2;33.1;47.67;2528;2018-04-16 23:32:58:922
-3.068;-9.258;0.439;-3.249;-9.237;0.539;0.181;-0.021;-0.099;0.067;-0.409;0.035;1.9;-2.2;33.1;47.67;2537;2018-04-16 23:32:58:931
-3.061;-9.355;0.463;-3.249;-9.235;0.578;0.19;-0.125;-0.116;0.078;-0.417;0.035;1.9;-2.2;33.1;47.67;2547;2018-04-16 23:32:58:941
-3.055;-9.389;0.47;-3.249;-9.235;0.578;0.19;-0.125;-0.116;0.071;-0.397;0.033;1.9;-2.2;33.1;47.67;2558;2018-04-16 23:32:58:952
-3.055;-9.389;0.47;-3.248;-9.233;0.613;0.227;-0.115;-0.161;0.055;-0.359;0.032;1.9;-2.2;33.1;50.35;2567;2018-04-16 23:32:58:961
-3.005;-9.305;0.435;-3.248;-9.233;0.613;0.227;-0.115;-0.161;0.055;-0.359;0.032;1.8;-2.2;33.1;50.35;2578;2018-04-16 23:32:58:972
-2.983;-9.224;0.403;-3.247;-9.232;0.635;0.264;0.008;-0.232;0.034;-0.29;0.028;1.8;-2.2;33.1;50.35;2587;2018-04-16 23:32:58:981
-2.983;-9.224;0.403;-3.247;-9.232;0.635;0.264;0.008;-0.232;0.02;-0.249;0.023;1.8;-2.3;33.0;50.35;2597;2018-04-16 23:32:58:991
-3.0;-9.203;0.407;-3.246;-9.231;0.648;0.244;0.035;-0.236;0.01;-0.182;0.021;1.8;-2.3;33.0;50.35;2607;2018-04-16 23:32:59:001
-3.061;-9.221;0.439;-3.246;-9.231;0.648;0.244;0.035;-0.236;0.01;-0.182;0.021;1.8;-2.3;33.0;50.35;2617;2018-04-16 23:32:59:011
-3.117;-9.242;0.445;-3.245;-9.231;0.653;0.128;-0.011;-0.208;0.007;-0.103;0.01;1.8;-2.3;33.0;50.35;2628;2018-04-16 23:32:59:022
-3.117;-9.242;0.445;-3.245;-9.231;0.653;0.128;-0.011;-0.208;0.004;-0.044;0.009;1.8;-2.4;33.0;50.35;2638;2018-04-16 23:32:59:032
-3.185;-9.239;0.444;-3.246;-9.231;0.651;0.042;0.002;-0.205;0.004;0.035;0.009;1.8;-2.4;33.0;50.35;2648;2018-04-16 23:32:59:042
-3.221;-9.214;0.447;-3.246;-9.231;0.651;0.042;0.002;-0.205;0.004;0.035;0.009;1.9;-2.4;32.9;50.35;2657;2018-04-16 23:32:59:051
-3.223;-9.188;0.468;-3.249;-9.231;0.638;0.027;0.043;-0.17;-0.012;0.116;0.01;1.9;-2.4;32.9;50.35;2668;2018-04-16 23:32:59:062
-3.223;-9.188;0.468;-3.249;-9.231;0.638;0.027;0.043;-0.17;-0.038;0.195;0.012;2.0;-2.3;33.0;50.35;2677;2018-04-16 23:32:59:071
-3.212;-9.224;0.522;-3.254;-9.231;0.614;0.052;0.02;-0.095;-0.057;0.246;0.011;2.0;-2.3;33.0;50.35;2688;2018-04-16 23:32:59:082
-3.189;-9.236;0.532;-3.254;-9.231;0.614;0.052;0.02;-0.095;-0.057;0.246;0.011;2.0;-2.3;32.9;50.35;2697;2018-04-16 23:32:59:091
-3.146;-9.242;0.532;-3.259;-9.231;0.582;0.113;-0.011;-0.051;-0.065;0.296;0.011;2.0;-2.3;32.9;50.35;2707;2018-04-16 23:32:59:101
-3.146;-9.242;0.532;-3.259;-9.231;0.582;0.113;-0.011;-0.051;-0.059;0.305;0.013;2.1;-2.4;33.0;50.35;2718;2018-04-16 23:32:59:112
-3.108;-9.25;0.508;-3.263;-9.231;0.555;0.161;-0.035;-0.047;-0.04;0.296;0.01;2.1;-2.4;33.0;50.35;2727;2018-04-16 23:32:59:121
-3.066;-9.279;0.488;-3.263;-9.231;0.555;0.161;-0.035;-0.047;-0.015;0.264;0.011;2.1;-2.3;32.9;50.35;2738;2018-04-16 23:32:59:132
-3.066;-9.279;0.488;-3.265;-9.231;0.541;0.207;-0.083;-0.044;0.002;0.228;0.01;2.1;-2.3;32.9;50.35;2748;2018-04-16 23:32:59:142
-3.075;-9.335;0.5;-3.265;-9.231;0.541;0.207;-0.083;-0.044;0.016;0.204;0.01;2.1;-2.3;32.9;50.35;2757;2018-04-16 23:32:59:151
-3.103;-9.337;0.491;-3.267;-9.231;0.53;0.164;-0.106;-0.039;0.009;0.181;0.012;2.1;-2.3;32.9;50.35;2768;2018-04-16 23:32:59:162
-3.103;-9.337;0.491;-3.267;-9.231;0.53;0.164;-0.106;-0.039;0.0;0.165;0.011;2.2;-2.3;32.8;50.35;2778;2018-04-16 23:32:59:172
-3.11;-9.293;0.42;-3.269;-9.231;0.519;0.178;-0.045;-0.087;-0.007;0.134;0.011;2.2;-2.3;32.8;50.35;2788;2018-04-16 23:32:59:182
-3.099;-9.195;0.407;-3.269;-9.231;0.519;0.178;-0.045;-0.087;0.0;0.035;0.01;2.1;-2.4;32.7;50.35;2800;2018-04-16 23:32:59:194
-3.099;-9.195;0.407;-3.27;-9.231;0.515;0.169;0.069;-0.097;0.0;0.035;0.01;2.1;-2.4;32.7;50.35;2807;2018-04-16 23:32:59:201
-3.1;-9.179;0.447;-3.27;-9.231;0.515;0.169;0.069;-0.097;0.004;-0.015;0.015;2.1;-2.4;32.7;50.35;2818;2018-04-16 23:32:59:212
-3.098;-9.197;0.457;-3.27;-9.231;0.515;0.169;0.069;-0.097;0.005;-0.054;0.013;2.1;-2.4;32.7;50.35;2828;2018-04-16 23:32:59:222
-3.098;-9.197;0.457;-3.271;-9.23;0.519;0.173;0.033;-0.061;0.005;-0.054;0.013;2.1;-2.4;32.7;50.35;2838;2018-04-16 23:32:59:232
-3.075;-9.239;0.464;-3.271;-9.23;0.526;0.201;-0.004;-0.057;0.004;-0.103;0.017;2.1;-2.3;32.7;50.35;2848;2018-04-16 23:32:59:242
-3.055;-9.206;0.456;-3.271;-9.23;0.526;0.201;-0.004;-0.057;0.009;-0.138;0.02;2.1;-2.3;32.7;50.35;2857;2018-04-16 23:32:59:251
-3.039;-9.237;0.444;-3.271;-9.229;0.538;0.231;-0.007;-0.094;0.023;-0.165;0.016;2.1;-2.3;32.7;50.35;2868;2018-04-16 23:32:59:262
-3.039;-9.237;0.444;-3.271;-9.229;0.538;0.231;-0.007;-0.094;0.035;-0.191;0.016;2.1;-2.3;32.8;50.35;2877;2018-04-16 23:32:59:271
-3.047;-9.242;0.492;-3.269;-9.229;0.556;0.223;-0.013;-0.064;0.035;-0.191;0.016;2.1;-2.3;32.8;50.82;2888;2018-04-16 23:32:59:282
-3.048;-9.189;0.486;-3.269;-9.229;0.556;0.223;-0.013;-0.064;0.032;-0.178;0.012;2.1;-2.3;32.8;50.82;2898;2018-04-16 23:32:59:292
-3.048;-9.189;0.486;-3.269;-9.229;0.556;0.223;-0.013;-0.064;0.032;-0.178;0.012;2.1;-2.3;32.8;50.82;2907;2018-04-16 23:32:59:301
-3.073;-9.194;0.453;-3.267;-9.229;0.569;0.225;0.03;-0.111;0.016;-0.132;0.005;2.1;-2.3;32.8;50.82;2917;2018-04-16 23:32:59:311
-3.124;-9.251;0.421;-3.265;-9.229;0.575;0.141;-0.022;-0.153;0.007;-0.105;0.004;2.1;-2.3;32.8;50.82;2928;2018-04-16 23:32:59:322
-3.124;-9.251;0.421;-3.265;-9.229;0.575;0.141;-0.022;-0.153;0.005;-0.1;0.0;2.1;-2.2;32.8;50.82;2937;2018-04-16 23:32:59:331
-3.124;-9.251;0.421;-3.265;-9.229;0.575;0.141;-0.022;-0.153;0.005;-0.1;0.0;2.1;-2.2;32.8;50.82;2948;2018-04-16 23:32:59:342
-3.203;-9.225;0.414;-3.263;-9.229;0.581;0.06;0.005;-0.166;0.009;-0.088;0.004;2.1;-2.3;32.9;50.82;2958;2018-04-16 23:32:59:352
-3.218;-9.215;0.427;-3.263;-9.229;0.585;0.045;0.014;-0.158;0.009;-0.088;0.004;2.1;-2.3;32.9;50.82;2968;2018-04-16 23:32:59:362
-3.2;-9.218;0.431;-3.263;-9.229;0.585;0.045;0.014;-0.158;0.0;-0.051;0.007;2.0;-2.3;32.9;50.82;2978;2018-04-16 23:32:59:372
-3.163;-9.239;0.418;-3.263;-9.229;0.586;0.1;-0.01;-0.168;-0.005;-0.031;0.006;2.0;-2.3;32.9;50.82;2989;2018-04-16 23:32:59:383
-3.163;-9.239;0.418;-3.263;-9.229;0.586;0.1;-0.01;-0.168;-0.005;-0.031;0.006;2.0;-2.3;32.8;50.82;2998;2018-04-16 23:32:59:392
-3.112;-9.222;0.431;-3.263;-9.229;0.586;0.1;-0.01;-0.168;-0.012;-0.002;0.005;2.0;-2.3;32.9;50.82;3008;2018-04-16 23:32:59:402
-3.112;-9.222;0.431;-3.263;-9.229;0.586;0.1;-0.01;-0.168;-0.012;-0.002;0.005;2.0;-2.3;32.9;50.82;3019;2018-04-16 23:32:59:413
-3.112;-9.222;0.431;-3.263;-9.229;0.586;0.1;-0.01;-0.168;-0.012;-0.002;0.005;2.0;-2.3;32.9;50.82;3027;2018-04-16 23:32:59:421
-3.106;-9.221;0.441;-3.262;-9.23;0.582;0.156;0.009;-0.141;-0.017;0.006;0.005;2.1;-2.2;33.0;50.82;3038;2018-04-16 23:32:59:432
-3.106;-9.221;0.441;-3.262;-9.23;0.582;0.156;0.009;-0.141;-0.033;0.075;-0.004;2.1;-2.2;33.0;50.82;3047;2018-04-16 23:32:59:441
-3.122;-9.22;0.509;-3.258;-9.233;0.555;0.138;0.01;-0.037;-0.028;0.087;-0.004;2.1;-2.2;32.9;50.82;3057;2018-04-16 23:32:59:451
-3.14;-9.175;0.536;-3.258;-9.233;0.555;0.138;0.01;-0.037;-0.027;0.1;-0.005;2.1;-2.2;32.9;50.82;3068;2018-04-16 23:32:59:462
-3.14;-9.175;0.536;-3.257;-9.234;0.544;0.128;0.071;0.001;-0.027;0.1;-0.005;2.1;-2.2;32.9;50.82;3077;2018-04-16 23:32:59:471
-3.127;-9.159;0.548;-3.257;-9.234;0.537;0.129;0.071;0.025;-0.02;0.136;-0.005;2.1;-2.2;32.9;50.82;3088;2018-04-16 23:32:59:482
-3.151;-9.191;0.543;-3.257;-9.234;0.537;0.129;0.071;0.025;-0.024;0.156;-0.005;2.2;-2.2;32.9;50.82;3098;2018-04-16 23:32:59:492
-3.151;-9.191;0.543;-3.257;-9.234;0.537;0.129;0.071;0.025;-0.028;0.169;-0.006;2.2;-2.2;32.9;50.82;3108;2018-04-16 23:32:59:502
-3.144;-9.219;0.522;-3.257;-9.235;0.52;0.121;0.043;0.027;-0.028;0.169;-0.006;2.2;-2.2;32.9;50.82;3117;2018-04-16 23:32:59:511
-3.144;-9.219;0.522;-3.257;-9.236;0.504;0.109;0.007;-0.016;-0.032;0.167;-0.001;2.2;-2.2;32.7;50.82;3128;2018-04-16 23:32:59:522
-3.16;-9.227;0.485;-3.257;-9.236;0.504;0.109;0.007;-0.016;-0.018;0.127;0.002;2.2;-2.2;32.7;50.82;3137;2018-04-16 23:32:59:531
-3.157;-9.216;0.48;-3.258;-9.236;0.495;0.101;0.02;-0.015;-0.007;0.089;0.005;2.2;-2.3;32.7;50.82;3148;2018-04-16 23:32:59:542
-3.157;-9.216;0.48;-3.258;-9.236;0.495;0.101;0.02;-0.015;0.005;0.037;0.011;2.2;-2.3;32.7;50.82;3157;2018-04-16 23:32:59:551
-3.163;-9.187;0.528;-3.259;-9.236;0.493;0.097;0.049;0.034;0.005;0.037;0.011;2.2;-2.3;32.7;50.82;3168;2018-04-16 23:32:59:562
-3.163;-9.187;0.528;-3.259;-9.236;0.493;0.097;0.049;0.034;0.016;0.012;0.011;2.2;-2.3;32.7;50.82;3177;2018-04-16 23:32:59:571
-3.146;-9.189;0.545;-3.26;-9.235;0.499;0.12;0.03;0.04;0.022;-0.005;0.013;2.2;-2.4;32.7;50.82;3188;2018-04-16 23:32:59:582
-3.123;-9.24;0.528;-3.26;-9.235;0.499;0.12;0.03;0.04;0.029;-0.029;0.013;2.2;-2.4;32.7;51.05;3197;2018-04-16 23:32:59:591
-3.108;-9.284;0.5;-3.261;-9.235;0.508;0.153;-0.049;-0.007;0.039;-0.054;0.013;2.2;-2.4;32.7;51.05;3208;2018-04-16 23:32:59:602
-3.108;-9.284;0.5;-3.261;-9.235;0.508;0.153;-0.049;-0.007;0.039;-0.054;0.013;2.2;-2.4;32.7;51.05;3217;2018-04-16 23:32:59:611
-3.062;-9.329;0.438;-3.26;-9.234;0.522;0.215;-0.08;-0.112;0.051;-0.093;0.012;2.2;-2.4;32.7;51.05;3228;2018-04-16 23:32:59:622
-3.042;-9.316;0.375;-3.26;-9.234;0.522;0.215;-0.08;-0.112;0.053;-0.136;0.01;2.2;-2.4;32.7;51.05;3237;2018-04-16 23:32:59:631
-3.042;-9.316;0.375;-3.258;-9.234;0.54;0.221;-0.088;-0.217;0.051;-0.167;0.007;2.1;-2.5;32.6;51.05;3248;2018-04-16 23:32:59:642
-3.045;-9.311;0.324;-3.258;-9.234;0.54;0.221;-0.088;-0.217;0.051;-0.167;0.007;2.1;-2.5;32.6;51.05;3257;2018-04-16 23:32:59:651
-3.066;-9.293;0.333;-3.254;-9.234;0.562;0.188;-0.059;-0.229;0.053;-0.221;0.005;2.1;-2.5;32.5;51.05;3267;2018-04-16 23:32:59:661
-3.066;-9.293;0.333;-3.254;-9.234;0.562;0.188;-0.059;-0.229;0.045;-0.252;0.002;2.1;-2.5;32.5;51.05;3278;2018-04-16 23:32:59:672
-3.093;-9.244;0.427;-3.25;-9.234;0.583;0.151;0.006;-0.121;0.034;-0.233;0.001;2.1;-2.5;32.6;51.05;3287;2018-04-16 23:32:59:681
-3.095;-9.194;0.508;-3.25;-9.234;0.583;0.151;0.006;-0.121;0.034;-0.233;0.001;2.1;-2.5;32.6;51.05;3297;2018-04-16 23:32:59:691
-3.1;-9.164;0.546;-3.247;-9.234;0.592;0.147;0.071;-0.046;0.004;-0.151;0.002;2.1;-2.4;32.6;51.05;3308;2018-04-16 23:32:59:702
-3.1;-9.164;0.546;-3.247;-9.234;0.592;0.147;0.071;-0.046;-0.021;-0.078;-0.001;2.1;-2.4;32.6;51.05;3317;2018-04-16 23:32:59:711
-3.141;-9.124;0.512;-3.245;-9.236;0.585;0.09;0.099;-0.088;-0.042;0.021;-0.007;2.1;-2.4;32.5;51.05;3328;2018-04-16 23:32:59:722
-3.203;-9.17;0.469;-3.245;-9.236;0.585;0.09;0.099;-0.088;-0.037;0.061;-0.005;2.1;-2.4;32.5;51.05;3337;2018-04-16 23:32:59:731
-3.214;-9.203;0.473;-3.245;-9.236;0.574;0.031;0.033;-0.102;-0.02;0.07;-0.006;2.2;-2.4;32.5;51.05;3347;2018-04-16 23:32:59:741
-3.214;-9.203;0.473;-3.245;-9.236;0.574;0.031;0.033;-0.102;-0.002;0.073;-0.006;2.2;-2.4;32.5;51.05;3358;2018-04-16 23:32:59:752
-3.185;-9.216;0.497;-3.244;-9.237;0.568;0.083;0.026;-0.06;0.006;0.089;-0.007;2.2;-2.4;32.6;51.05;3368;2018-04-16 23:32:59:762
-3.112;-9.167;0.492;-3.244;-9.237;0.568;0.083;0.026;-0.06;0.002;0.117;-0.004;2.2;-2.4;32.6;51.05;3378;2018-04-16 23:32:59:772
-3.091;-9.175;0.47;-3.244;-9.238;0.556;0.153;0.063;-0.085;-0.009;0.151;-0.004;2.2;-2.4;32.7;51.05;3389;2018-04-16 23:32:59:783
-3.091;-9.175;0.47;-3.244;-9.238;0.556;0.153;0.063;-0.085;-0.022;0.171;-0.004;2.2;-2.4;32.7;51.05;3398;2018-04-16 23:32:59:792
-3.102;-9.219;0.441;-3.244;-9.239;0.537;0.139;0.01;-0.086;-0.035;0.177;-0.004;2.2;-2.4;32.7;51.05;3408;2018-04-16 23:32:59:802
-3.102;-9.219;0.441;-3.244;-9.239;0.537;0.139;0.01;-0.086;-0.037;0.167;-0.005;2.2;-2.4;32.7;51.05;3417;2018-04-16 23:32:59:811
-3.122;-9.266;0.5;-3.244;-9.24;0.52;0.123;-0.036;-0.008;-0.037;0.151;-0.006;2.2;-2.4;32.9;51.05;3428;2018-04-16 23:32:59:822
-3.122;-9.274;0.576;-3.244;-9.24;0.52;0.123;-0.036;-0.008;-0.037;0.151;-0.006;2.2;-2.4;32.9;51.05;3437;2018-04-16 23:32:59:831
-3.121;-9.281;0.575;-3.243;-9.241;0.507;0.122;-0.04;0.068;-0.024;0.138;-0.006;2.2;-2.3;32.9;51.05;3447;2018-04-16 23:32:59:841
-3.121;-9.281;0.575;-3.243;-9.241;0.507;0.122;-0.04;0.068;-0.016;0.132;-0.006;2.2;-2.3;32.9;51.05;3457;2018-04-16 23:32:59:851
-3.116;-9.28;0.541;-3.242;-9.242;0.498;0.13;-0.03;0.026;-0.007;0.123;-0.007;2.2;-2.3;32.9;51.05;3468;2018-04-16 23:32:59:862
-3.096;-9.24;0.504;-3.242;-9.242;0.498;0.13;-0.03;0.026;0.002;0.104;-0.004;2.3;-2.3;32.9;51.05;3477;2018-04-16 23:32:59:871
-3.079;-9.206;0.462;-3.241;-9.242;0.495;0.162;0.037;-0.033;0.006;0.073;-0.001;2.3;-2.3;32.9;51.05;3487;2018-04-16 23:32:59:881
-3.079;-9.206;0.462;-3.241;-9.242;0.495;0.162;0.037;-0.033;0.005;0.031;-0.001;2.3;-2.2;33.0;51.05;3497;2018-04-16 23:32:59:891
-3.079;-9.189;0.457;-3.239;-9.243;0.494;0.158;0.051;-0.017;-0.001;0.009;-0.002;2.3;-2.2;33.0;51.05;3508;2018-04-16 23:32:59:902
-3.081;-9.244;0.492;-3.239;-9.243;0.494;0.158;0.051;-0.017;-0.001;0.009;-0.002;2.2;-2.3;33.0;50.62;3517;2018-04-16 23:32:59:911
-3.081;-9.244;0.492;-3.237;-9.244;0.492;0.139;-0.013;0.023;-0.016;-0.021;-0.002;2.2;-2.3;33.0;50.62;3528;2018-04-16 23:32:59:922
-3.118;-9.26;0.52;-3.237;-9.244;0.492;0.139;-0.013;0.023;-0.022;-0.035;-0.004;2.2;-2.2;33.0;50.62;3537;2018-04-16 23:32:59:931
-3.163;-9.231;0.533;-3.235;-9.244;0.493;0.072;0.014;0.04;-0.013;-0.07;-0.005;2.2;-2.2;33.0;50.62;3548;2018-04-16 23:32:59:942
-3.163;-9.231;0.533;-3.235;-9.244;0.493;0.072;0.014;0.04;-0.013;-0.07;-0.005;2.2;-2.2;33.0;50.62;3558;2018-04-16 23:32:59:952
-3.19;-9.227;0.54;-3.233;-9.245;0.501;0.043;0.038;0.044;0.007;-0.106;-0.005;2.2;-2.2;33.0;50.62;3568;2018-04-16 23:32:59:962
-3.176;-9.187;0.539;-3.233;-9.245;0.501;0.043;0.038;0.044;0.033;-0.13;-0.002;2.2;-2.3;33.0;50.62;3577;2018-04-16 23:32:59:971
-3.176;-9.187;0.539;-3.231;-9.245;0.517;0.055;0.072;0.028;0.038;-0.136;0.001;2.2;-2.3;33.0;50.62;3587;2018-04-16 23:32:59:981
-3.168;-9.145;0.533;-3.231;-9.245;0.517;0.055;0.072;0.028;0.037;-0.128;0.002;2.1;-2.3;33.1;50.62;3597;2018-04-16 23:32:59:991
-3.138;-9.165;0.545;-3.23;-9.244;0.53;0.092;0.079;0.015;0.024;-0.103;0.004;2.1;-2.3;33.1;50.62;3607;2018-04-16 23:33:00:001
-3.138;-9.165;0.545;-3.23;-9.244;0.53;0.092;0.079;0.015;0.024;-0.103;0.004;2.1;-2.3;33.1;50.62;3617;2018-04-16 23:33:00:011
-3.13;-9.201;0.516;-3.229;-9.244;0.533;0.104;0.033;-0.026;-0.009;-0.046;0.005;2.1;-2.3;33.1;50.62;3627;2018-04-16 23:33:00:021
-3.116;-9.245;0.497;-3.229;-9.244;0.533;0.104;0.033;-0.026;-0.022;-0.032;0.006;2.0;-2.3;33.0;50.62;3637;2018-04-16 23:33:00:031
-3.116;-9.245;0.497;-3.229;-9.245;0.531;0.093;-0.008;-0.035;-0.024;-0.029;0.004;2.0;-2.3;33.0;50.62;3647;2018-04-16 23:33:00:041
-3.147;-9.249;0.496;-3.229;-9.245;0.531;0.093;-0.008;-0.035;-0.017;-0.035;0.005;2.0;-2.3;33.0;50.62;3657;2018-04-16 23:33:00:051
-3.179;-9.215;0.529;-3.229;-9.245;0.533;0.049;0.029;-0.004;-0.007;-0.045;0.005;2.0;-2.3;33.0;50.62;3668;2018-04-16 23:33:00:062
-3.179;-9.215;0.529;-3.229;-9.245;0.533;0.049;0.029;-0.004;0.007;-0.046;0.004;2.0;-2.3;33.0;50.62;3678;2018-04-16 23:33:00:072
-3.164;-9.188;0.553;-3.228;-9.244;0.539;0.064;0.067;0.042;0.022;-0.032;0.001;2.0;-2.3;33.0;50.62;3688;2018-04-16 23:33:00:082
-3.147;-9.142;0.571;-3.228;-9.244;0.539;0.064;0.067;0.042;0.023;-0.009;-0.001;2.0;-2.3;33.0;50.62;3697;2018-04-16 23:33:00:091
-3.147;-9.142;0.571;-3.227;-9.244;0.542;0.087;0.085;0.021;0.02;0.022;-0.002;2.0;-2.3;33.0;50.62;3707;2018-04-16 23:33:00:101
-3.127;-9.184;0.554;-3.227;-9.244;0.542;0.087;0.085;0.021;0.02;0.022;-0.002;2.0;-2.3;33.0;50.62;3718;2018-04-16 23:33:00:112
-3.104;-9.224;0.509;-3.227;-9.245;0.54;0.123;0.021;-0.031;0.007;0.064;-0.001;2.0;-2.3;33.0;50.62;3727;2018-04-16 23:33:00:121
-3.104;-9.224;0.509;-3.227;-9.245;0.54;0.123;0.021;-0.031;0.004;0.072;-0.001;2.0;-2.3;32.8;50.62;3738;2018-04-16 23:33:00:132
-3.103;-9.269;0.47;-3.226;-9.245;0.536;0.129;-0.013;-0.08;0.009;0.056;-0.001;2.0;-2.3;32.8;50.62;3748;2018-04-16 23:33:00:142
-3.106;-9.269;0.449;-3.226;-9.245;0.536;0.129;-0.013;-0.08;0.009;0.056;-0.001;2.0;-2.3;32.9;50.62;3758;2018-04-16 23:33:00:152
-3.11;-9.28;0.442;-3.225;-9.246;0.538;0.115;-0.034;-0.096;0.022;0.016;-0.002;2.0;-2.3;32.9;50.62;3767;2018-04-16 23:33:00:161
-3.11;-9.28;0.442;-3.225;-9.246;0.538;0.115;-0.034;-0.096;0.024;-0.012;-0.001;2.0;-2.3;32.9;50.62;3777;2018-04-16 23:33:00:171
-3.114;-9.269;0.447;-3.223;-9.246;0.544;0.101;-0.005;-0.104;0.032;-0.032;-0.004;2.0;-2.3;32.9;50.62;3788;2018-04-16 23:33:00:182
-3.126;-9.238;0.5;-3.223;-9.246;0.544;0.101;-0.005;-0.104;0.027;-0.04;0.0;2.0;-2.2;32.9;50.62;3797;2018-04-16 23:33:00:191
-3.153;-9.208;0.523;-3.222;-9.246;0.549;0.069;0.038;-0.026;0.009;-0.027;0.0;2.0;-2.2;32.9;50.62;3808;2018-04-16 23:33:00:202
-3.153;-9.208;0.523;-3.222;-9.246;0.549;0.069;0.038;-0.026;0.009;-0.027;0.0;2.0;-2.2;32.9;50.62;3818;2018-04-16 23:33:00:212
-3.199;-9.176;0.551;-3.223;-9.246;0.544;0.004;0.07;0.01;-0.017;0.017;0.001;2.0;-2.2;32.9;50.62;3828;2018-04-16 23:33:00:222
-3.248;-9.131;0.542;-3.223;-9.246;0.544;0.004;0.07;0.01;-0.027;0.039;0.004;2.0;-2.2;32.9;50.62;3837;2018-04-16 23:33:00:231
-3.291;-9.149;0.51;-3.225;-9.246;0.538;-0.066;0.096;-0.029;-0.011;0.027;0.007;2.0;-2.2;32.9;50.62;3848;2018-04-16 23:33:00:242
-3.291;-9.149;0.51;-3.225;-9.246;0.538;-0.066;0.096;-0.029;0.012;-0.01;0.011;2.0;-2.1;32.8;50.62;3857;2018-04-16 23:33:00:251
-3.279;-9.257;0.475;-3.228;-9.244;0.546;-0.043;-0.05;-0.084;0.046;-0.054;0.017;2.0;-2.1;32.8;50.56;3868;2018-04-16 23:33:00:262
-3.212;-9.305;0.447;-3.228;-9.244;0.546;-0.043;-0.05;-0.084;0.046;-0.054;0.017;2.0;-2.1;32.7;50.56;3877;2018-04-16 23:33:00:271
-3.212;-9.305;0.447;-3.229;-9.242;0.566;0.106;-0.041;-0.125;0.086;-0.119;0.021;2.0;-2.1;32.7;50.56;3888;2018-04-16 23:33:00:282
-3.091;-9.266;0.45;-3.229;-9.242;0.566;0.106;-0.041;-0.125;0.078;-0.12;0.018;2.1;-2.1;32.6;50.56;3897;2018-04-16 23:33:00:291
-3.03;-9.202;0.448;-3.229;-9.241;0.585;0.199;0.039;-0.137;0.064;-0.103;0.013;2.1;-2.1;32.6;50.56;3908;2018-04-16 23:33:00:302
-3.03;-9.202;0.448;-3.229;-9.241;0.585;0.199;0.039;-0.137;0.064;-0.103;0.013;2.1;-2.1;32.5;50.56;3917;2018-04-16 23:33:00:311
-2.996;-9.21;0.438;-3.228;-9.241;0.589;0.209;0.018;-0.164;0.015;-0.048;0.007;2.1;-2.1;32.5;50.56;3928;2018-04-16 23:33:00:322
-3.021;-9.262;0.448;-3.228;-9.241;0.589;0.209;0.018;-0.164;-0.002;-0.021;0.004;2.1;-2.0;32.7;50.56;3937;2018-04-16 23:33:00:331
-3.021;-9.266;0.441;-3.226;-9.242;0.586;0.177;-0.023;-0.146;-0.009;-0.004;-0.002;2.1;-2.0;32.7;50.56;3948;2018-04-16 23:33:00:342
-3.049;-9.266;0.441;-3.226;-9.242;0.586;0.177;-0.023;-0.146;-0.009;-0.004;-0.002;2.1;-1.9;32.7;50.56;3958;2018-04-16 23:33:00:352
-3.117;-9.27;0.456;-3.222;-9.243;0.59;0.096;-0.031;-0.127;0.021;-0.021;-0.011;2.1;-1.9;32.7;50.56;3968;2018-04-16 23:33:00:362
-3.14;-9.269;0.449;-3.222;-9.243;0.59;0.096;-0.031;-0.127;0.056;-0.051;-0.012;2.1;-1.9;32.5;50.56;3978;2018-04-16 23:33:00:372
-3.14;-9.269;0.449;-3.222;-9.243;0.59;0.096;-0.031;-0.127;0.056;-0.051;-0.012;2.1;-1.9;32.5;50.56;3988;2018-04-16 23:33:00:382
-3.151;-9.216;0.405;-3.219;-9.244;0.605;0.068;0.027;-0.2;0.081;-0.065;-0.011;2.1;-2.0;32.7;50.56;3998;2018-04-16 23:33:00:392
-3.127;-9.151;0.395;-3.219;-9.244;0.605;0.068;0.027;-0.2;0.093;-0.073;-0.011;2.1;-2.0;32.7;50.56;4009;2018-04-16 23:33:00:403
-3.123;-9.167;0.375;-3.215;-9.244;0.624;0.084;0.081;-0.231;0.089;-0.076;-0.012;2.1;-1.9;32.6;50.56;4018;2018-04-16 23:33:00:412
-3.123;-9.167;0.375;-3.211;-9.244;0.636;0.078;0.024;-0.287;0.066;-0.051;-0.017;2.1;-1.9;32.6;50.56;4028;2018-04-16 23:33:00:422
-3.147;-9.257;0.297;-3.211;-9.244;0.636;0.078;0.024;-0.287;0.044;-0.033;-0.021;2.1;-1.9;32.6;50.56;4038;2018-04-16 23:33:00:432
-3.147;-9.257;0.297;-3.206;-9.245;0.643;0.062;-0.044;-0.375;0.042;-0.044;-0.018;2.1;-1.9;32.6;50.56;4048;2018-04-16 23:33:00:442
-3.157;-9.309;0.239;-3.206;-9.245;0.643;0.062;-0.044;-0.375;0.042;-0.044;-0.018;2.1;-1.9;32.5;50.56;4057;2018-04-16 23:33:00:451
-3.152;-9.36;0.205;-3.2;-9.247;0.655;0.049;-0.114;-0.45;0.051;-0.084;-0.017;2.1;-1.9;32.5;50.56;4068;2018-04-16 23:33:00:462
-3.152;-9.36;0.205;-3.2;-9.247;0.655;0.049;-0.114;-0.45;0.071;-0.143;-0.02;2.1;-1.9;32.5;50.56;4077;2018-04-16 23:33:00:471
-3.118;-9.354;0.214;-3.194;-9.248;0.674;0.081;-0.06;-0.451;0.076;-0.165;-0.024;2.1;-1.9;32.5;50.56;4088;2018-04-16 23:33:00:482
-3.083;-9.185;0.232;-3.194;-9.248;0.674;0.081;-0.06;-0.451;0.072;-0.165;-0.026;2.1;-2.0;32.4;50.56;4098;2018-04-16 23:33:00:492
-3.083;-9.185;0.232;-3.186;-9.249;0.69;0.14;0.144;-0.426;0.05;-0.137;-0.024;2.1;-2.0;32.4;50.56;4108;2018-04-16 23:33:00:502
-3.027;-9.073;0.274;-3.186;-9.249;0.69;0.14;0.144;-0.426;0.05;-0.137;-0.024;2.1;-2.0;32.4;50.56;4117;2018-04-16 23:33:00:511
-3.043;-9.015;0.291;-3.179;-9.251;0.691;0.136;0.236;-0.4;0.009;-0.061;-0.033;2.2;-1.9;32.4;50.56;4128;2018-04-16 23:33:00:522
-3.043;-9.015;0.291;-3.179;-9.251;0.691;0.136;0.236;-0.4;-0.023;-0.004;-0.039;2.2;-1.9;32.4;50.56;4137;2018-04-16 23:33:00:531
-3.102;-9.041;0.25;-3.172;-9.255;0.676;0.055;0.189;-0.455;-0.046;0.037;-0.043;2.2;-1.9;32.4;50.56;4148;2018-04-16 23:33:00:542
-3.177;-9.152;0.213;-3.172;-9.255;0.676;0.055;0.189;-0.455;-0.053;0.048;-0.044;2.2;-1.9;32.4;50.56;4158;2018-04-16 23:33:00:552
-3.275;-9.281;0.224;-3.164;-9.259;0.661;-0.111;-0.023;-0.437;-0.044;0.028;-0.049;2.3;-1.9;32.5;50.56;4169;2018-04-16 23:33:00:563
-3.352;-9.361;0.242;-3.16;-9.26;0.656;-0.192;-0.101;-0.415;-0.031;-0.004;-0.053;2.3;-1.9;32.6;50.56;4178;2018-04-16 23:33:00:572
-3.352;-9.361;0.242;-3.16;-9.26;0.656;-0.192;-0.101;-0.415;-0.031;-0.004;-0.053;2.3;-1.9;32.6;49.99;4188;2018-04-16 23:33:00:582
-3.355;-9.311;0.294;-3.152;-9.263;0.653;-0.204;-0.048;-0.359;-0.007;-0.044;-0.05;2.3;-1.8;32.5;49.99;4197;2018-04-16 23:33:00:591
-3.355;-9.311;0.294;-3.152;-9.263;0.653;-0.204;-0.048;-0.359;-0.005;-0.034;-0.048;2.3;-1.8;32.5;49.99;4208;2018-04-16 23:33:00:602
-3.284;-9.183;0.362;-3.144;-9.266;0.649;-0.12;0.135;-0.269;-0.017;0.001;-0.046;2.3;-1.9;32.6;49.99;4217;2018-04-16 23:33:00:611
-3.259;-9.074;0.451;-3.144;-9.266;0.649;-0.12;0.135;-0.269;-0.04;0.062;-0.05;2.3;-1.9;32.6;49.99;4228;2018-04-16 23:33:00:622
-3.259;-9.074;0.451;-3.138;-9.27;0.631;-0.14;0.188;-0.148;-0.04;0.062;-0.05;2.4;-1.8;32.6;49.99;4237;2018-04-16 23:33:00:631
-3.287;-9.061;0.486;-3.136;-9.272;0.613;-0.152;0.225;-0.128;-0.086;0.181;-0.05;2.4;-1.8;32.6;49.99;4248;2018-04-16 23:33:00:642
-3.308;-9.033;0.431;-3.136;-9.272;0.613;-0.152;0.225;-0.128;-0.109;0.246;-0.049;2.4;-1.9;32.5;49.99;4257;2018-04-16 23:33:00:651
-3.308;-9.033;0.431;-3.132;-9.275;0.571;-0.168;0.253;-0.225;-0.119;0.285;-0.046;2.4;-1.9;32.5;49.99;4268;2018-04-16 23:33:00:662
-3.285;-9.021;0.317;-3.132;-9.275;0.571;-0.168;0.253;-0.225;-0.119;0.285;-0.046;2.5;-1.8;32.5;49.99;4277;2018-04-16 23:33:00:671
-3.349;-9.181;0.219;-3.129;-9.279;0.535;-0.221;0.098;-0.316;-0.105;0.242;-0.046;2.5;-1.8;32.5;49.99;4287;2018-04-16 23:33:00:681
-3.349;-9.181;0.219;-3.129;-9.279;0.535;-0.221;0.098;-0.316;-0.082;0.143;-0.04;2.5;-1.8;32.5;49.99;4298;2018-04-16 23:33:00:692
-3.405;-9.325;0.272;-3.125;-9.281;0.511;-0.297;-0.05;-0.214;-0.072;0.092;-0.038;2.5;-1.8;32.5;49.99;4308;2018-04-16 23:33:00:702
-3.405;-9.325;0.272;-3.125;-9.281;0.511;-0.297;-0.05;-0.214;-0.072;0.092;-0.038;2.5;-1.8;32.5;49.99;4318;2018-04-16 23:33:00:712
-3.484;-9.352;0.37;-3.123;-9.282;0.503;-0.36;-0.069;-0.133;-0.07;0.062;-0.033;2.5;-1.8;32.5;49.99;4328;2018-04-16 23:33:00:722
-3.464;-8.866;0.402;-3.125;-9.283;0.483;-0.34;0.417;-0.081;-0.081;0.059;-0.015;2.5;-1.8;32.5;49.99;4337;2018-04-16 23:33:00:731
-3.464;-8.866;0.402;-3.125;-9.283;0.483;-0.34;0.417;-0.081;-0.081;0.059;-0.015;2.5;-1.8;32.4;49.99;4348;2018-04-16 23:33:00:742
-3.486;-8.626;0.491;-3.127;-9.283;0.468;-0.359;0.657;0.023;-0.115;0.097;0.0;2.5;-1.8;32.4;49.99;4357;2018-04-16 23:33:00:751
-3.522;-8.513;0.549;-3.138;-9.281;0.426;-0.384;0.769;0.124;-0.162;0.198;0.028;2.5;-1.9;32.4;49.99;4367;2018-04-16 23:33:00:761
-3.522;-8.513;0.549;-3.138;-9.281;0.426;-0.384;0.769;0.124;-0.162;0.198;0.028;2.5;-1.9;32.4;49.99;4378;2018-04-16 23:33:00:772
-3.528;-8.823;0.383;-3.159;-9.277;0.367;-0.358;0.353;-0.041;-0.209;0.329;0.078;2.5;-1.9;32.4;49.99;4387;2018-04-16 23:33:00:781
-3.439;-9.187;0.195;-3.159;-9.277;0.367;-0.358;0.353;-0.041;-0.209;0.327;0.105;2.5;-1.9;32.4;49.99;4398;2018-04-16 23:33:00:792
-3.305;-9.396;0.104;-3.186;-9.269;0.319;-0.119;-0.127;-0.215;-0.143;0.192;0.137;2.5;-1.9;32.3;49.99;4407;2018-04-16 23:33:00:801
-3.305;-9.396;0.104;-3.186;-9.269;0.319;-0.119;-0.127;-0.215;-0.143;0.192;0.137;2.5;-1.9;32.3;49.99;4418;2018-04-16 23:33:00:812
-3.146;-9.528;0.055;-3.209;-9.261;0.316;0.095;-0.257;-0.252;-0.029;-0.05;0.133;2.4;-1.9;32.3;49.99;4427;2018-04-16 23:33:00:821
-3.032;-9.464;0.085;-3.209;-9.261;0.316;0.095;-0.257;-0.252;0.04;-0.198;0.123;2.4;-1.9;32.3;49.99;4438;2018-04-16 23:33:00:832
-3.032;-9.464;0.085;-3.228;-9.254;0.346;0.327;-0.117;-0.224;0.086;-0.329;0.13;2.4;-1.9;32.3;49.99;4448;2018-04-16 23:33:00:842
-2.711;-9.306;0.165;-3.228;-9.254;0.346;0.327;-0.117;-0.224;0.083;-0.349;0.145;2.4;-1.9;32.3;49.99;4457;2018-04-16 23:33:00:851
-2.711;-9.306;0.165;-3.249;-9.245;0.379;0.762;-0.04;-0.176;0.054;-0.329;0.165;2.3;-1.9;32.4;49.99;4468;2018-04-16 23:33:00:862
-2.395;-9.292;0.223;-3.249;-9.245;0.379;0.762;-0.04;-0.176;0.054;-0.329;0.165;2.3;-1.9;32.4;49.99;4477;2018-04-16 23:33:00:871
-2.077;-9.45;0.236;-3.27;-9.237;0.387;1.193;-0.213;-0.151;-0.032;-0.235;0.184;2.3;-2.0;32.4;49.99;4488;2018-04-16 23:33:00:882
-2.077;-9.45;0.236;-3.27;-9.237;0.387;1.193;-0.213;-0.151;-0.04;-0.226;0.186;2.3;-2.0;32.4;51.37;4497;2018-04-16 23:33:00:891
-1.664;-9.791;0.235;-3.287;-9.231;0.401;1.716;-0.65;-0.171;0.023;-0.283;0.171;2.3;-2.0;32.5;51.37;4508;2018-04-16 23:33:00:902
-1.322;-10.087;0.211;-3.287;-9.231;0.401;1.716;-0.65;-0.171;0.023;-0.283;0.171;2.3;-2.0;32.5;51.37;4518;2018-04-16 23:33:00:912
-1.322;-10.087;0.211;-3.29;-9.226;0.468;2.182;-0.895;-0.286;0.202;-0.463;0.117;2.3;-2.1;32.5;51.37;4527;2018-04-16 23:33:00:921
-1.061;-10.035;0.202;-3.29;-9.226;0.468;2.182;-0.895;-0.286;0.324;-0.588;0.054;2.3;-2.1;32.5;51.37;4538;2018-04-16 23:33:00:932
-1.165;-9.706;0.214;-3.26;-9.231;0.572;2.095;-0.475;-0.358;0.364;-0.602;-0.067;2.3;-2.1;32.5;51.37;4548;2018-04-16 23:33:00:942
-1.165;-9.706;0.214;-3.26;-9.231;0.572;2.095;-0.475;-0.358;0.364;-0.602;-0.067;2.3;-2.1;32.5;51.37;4558;2018-04-16 23:33:00:952
-1.429;-9.495;0.142;-3.26;-9.231;0.572;2.095;-0.475;-0.358;0.214;-0.418;-0.173;2.3;-2.1;32.7;51.37;4567;2018-04-16 23:33:00:961
-1.429;-9.495;0.142;-3.207;-9.246;0.631;1.684;-0.176;-0.491;-0.011;-0.199;-0.26;2.3;-2.1;32.7;51.37;4577;2018-04-16 23:33:00:971
-2.185;-9.409;0.484;-3.143;-9.268;0.626;0.824;-0.142;-0.031;-0.095;-0.064;-0.305;2.3;-2.1;32.6;51.37;4588;2018-04-16 23:33:00:982
-2.571;-9.333;0.833;-3.143;-9.268;0.626;0.824;-0.142;-0.031;-0.073;0.059;-0.335;2.3;-2.1;32.6;51.37;4597;2018-04-16 23:33:00:991
-2.571;-9.333;0.833;-3.076;-9.291;0.62;0.221;-0.082;0.314;0.039;0.154;-0.358;2.4;-2.1;32.6;51.37;4608;2018-04-16 23:33:01:002
-2.952;-9.421;0.95;-3.076;-9.291;0.62;0.221;-0.082;0.314;0.039;0.154;-0.358;2.4;-2.1;32.6;51.37;4617;2018-04-16 23:33:01:011
-2.952;-9.421;0.95;-3.076;-9.291;0.62;0.221;-0.082;0.314;0.222;0.271;-0.343;2.5;-2.1;32.7;51.37;4628;2018-04-16 23:33:01:022
-2.915;-9.415;0.907;-3.014;-9.309;0.646;0.099;-0.106;0.261;0.261;0.318;-0.334;2.5;-2.1;32.7;51.37;4637;2018-04-16 23:33:01:031
-2.794;-9.336;0.718;-2.962;-9.324;0.677;0.168;-0.012;0.041;0.314;0.474;-0.308;2.6;-2.0;32.7;51.37;4647;2018-04-16 23:33:01:041
-2.794;-9.336;0.718;-2.962;-9.324;0.677;0.168;-0.012;0.041;0.349;0.567;-0.271;2.6;-2.0;32.7;51.37;4658;2018-04-16 23:33:01:052
-2.672;-9.257;0.444;-2.919;-9.335;0.71;0.279;0.073;-0.318;0.38;0.563;-0.249;2.7;-1.9;32.7;51.37;4668;2018-04-16 23:33:01:062
-2.587;-9.274;0.316;-2.919;-9.335;0.71;0.279;0.073;-0.318;0.395;0.517;-0.233;2.7;-1.9;32.7;51.37;4677;2018-04-16 23:33:01:071
-2.587;-9.274;0.316;-2.919;-9.335;0.71;0.279;0.073;-0.318;0.395;0.517;-0.233;2.7;-1.9;32.7;51.37;4688;2018-04-16 23:33:01:082
-2.44;-9.299;0.156;-2.882;-9.344;0.749;0.442;0.045;-0.593;0.381;0.458;-0.215;2.7;-1.9;32.6;51.37;4698;2018-04-16 23:33:01:092
-2.261;-9.228;0.159;-2.848;-9.352;0.777;0.611;0.133;-0.577;0.297;0.358;-0.184;2.7;-1.9;32.6;51.37;4708;2018-04-16 23:33:01:102
-2.261;-9.228;0.159;-2.848;-9.352;0.777;0.611;0.133;-0.577;0.297;0.358;-0.184;2.7;-1.8;32.6;51.37;4718;2018-04-16 23:33:01:112
-2.312;-9.21;0.499;-2.822;-9.359;0.79;0.486;0.123;-0.24;0.132;0.226;-0.128;2.7;-1.8;32.6;51.37;4727;2018-04-16 23:33:01:121
-2.488;-9.31;0.675;-2.822;-9.359;0.79;0.486;0.123;-0.24;0.105;0.194;-0.11;2.8;-1.7;32.5;51.37;4738;2018-04-16 23:33:01:132
-2.488;-9.31;0.675;-2.804;-9.363;0.799;0.095;-0.056;0.006;0.106;0.173;-0.092;2.8;-1.7;32.5;51.37;4747;2018-04-16 23:33:01:141
-2.766;-9.446;0.879;-2.804;-9.363;0.799;0.095;-0.056;0.006;0.17;0.131;-0.066;2.8;-1.6;32.5;51.37;4758;2018-04-16 23:33:01:152
-3.0;-9.483;1.022;-2.796;-9.363;0.834;-0.204;-0.121;0.189;0.252;0.109;-0.053;2.8;-1.6;32.5;51.37;4768;2018-04-16 23:33:01:162
-3.0;-9.483;1.022;-2.796;-9.363;0.834;-0.204;-0.121;0.189;0.252;0.109;-0.053;2.8;-1.4;32.4;51.37;4777;2018-04-16 23:33:01:171
-3.057;-9.414;1.019;-2.795;-9.357;0.903;-0.253;-0.053;0.107;0.389;0.087;-0.024;2.8;-1.4;32.4;51.37;4787;2018-04-16 23:33:01:181
-2.958;-9.349;1.0;-2.795;-9.357;0.903;-0.253;-0.053;0.107;0.459;0.086;-0.01;2.7;-1.2;32.4;51.37;4798;2018-04-16 23:33:01:192
-2.851;-9.313;1.001;-2.798;-9.347;0.991;-0.053;0.033;0.01;0.505;0.109;0.002;2.7;-1.2;32.4;51.37;4807;2018-04-16 23:33:01:201
-2.851;-9.313;1.001;-2.798;-9.347;0.991;-0.053;0.033;0.01;0.531;0.15;0.011;2.7;-1.0;32.4;51.37;4818;2018-04-16 23:33:01:212
-2.727;-9.273;0.895;-2.804;-9.335;1.081;0.098;0.068;-0.239;0.547;0.184;0.016;2.6;-1.0;32.3;51.68;4827;2018-04-16 23:33:01:221
-2.715;-9.317;0.687;-2.804;-9.335;1.081;0.098;0.068;-0.239;0.575;0.175;0.023;2.6;-1.0;32.3;51.68;4838;2018-04-16 23:33:01:232
-2.715;-9.317;0.687;-2.812;-9.321;1.18;0.009;-0.132;-0.643;0.615;0.094;0.032;2.5;-0.8;32.3;51.68;4847;2018-04-16 23:33:01:241
-2.82;-9.521;0.423;-2.812;-9.321;1.18;0.009;-0.132;-0.643;0.676;-0.044;0.046;2.5;-0.8;32.3;51.68;4857;2018-04-16 23:33:01:251
-2.825;-9.564;0.2;-2.819;-9.301;1.313;-0.006;-0.263;-1.113;0.743;-0.21;0.066;2.4;-0.6;32.2;51.68;4868;2018-04-16 23:33:01:262
-2.825;-9.564;0.2;-2.819;-9.301;1.313;-0.006;-0.263;-1.113;0.743;-0.21;0.066;2.4;-0.5;32.2;51.68;4878;2018-04-16 23:33:01:272
-2.618;-9.588;-0.042;-2.822;-9.275;1.474;0.248;-0.328;-1.565;0.816;-0.441;0.094;2.4;-0.5;32.2;51.68;4887;2018-04-16 23:33:01:281
-2.452;-9.623;-0.219;-2.822;-9.275;1.474;0.248;-0.328;-1.565;0.827;-0.601;0.105;2.2;-0.2;32.1;51.68;4897;2018-04-16 23:33:01:291
-2.452;-9.623;-0.219;-2.818;-9.248;1.646;0.484;-0.407;-1.999;0.819;-0.668;0.109;2.2;-0.2;32.1;51.68;4908;2018-04-16 23:33:01:302
-2.266;-9.653;-0.389;-2.818;-9.248;1.646;0.484;-0.407;-1.999;0.819;-0.668;0.109;2.1;0.0;32.0;51.68;4917;2018-04-16 23:33:01:311
-1.926;-9.631;-0.482;-2.804;-9.22;1.816;0.878;-0.411;-2.298;0.816;-0.731;0.1;2.1;0.0;32.0;51.68;4928;2018-04-16 23:33:01:322
-1.926;-9.631;-0.482;-2.804;-9.22;1.816;0.878;-0.411;-2.298;0.806;-0.715;0.081;2.0;0.2;32.0;51.68;4937;2018-04-16 23:33:01:331
-1.615;-9.457;-0.499;-2.781;-9.196;1.968;1.221;-0.271;-2.482;0.781;-0.619;0.055;2.0;0.2;32.0;51.68;4948;2018-04-16 23:33:01:342
-1.458;-9.5;-0.582;-2.781;-9.196;1.968;1.221;-0.271;-2.482;0.722;-0.442;0.024;1.9;0.5;32.1;51.68;4958;2018-04-16 23:33:01:352
-1.458;-9.5;-0.582;-2.781;-9.196;1.968;1.221;-0.271;-2.482;0.621;-0.184;-0.007;1.9;0.5;32.1;51.68;4967;2018-04-16 23:33:01:361
-1.335;-9.96;-0.52;-2.761;-9.18;2.067;1.427;-0.78;-2.586;0.359;0.345;-0.087;1.9;0.8;32.0;51.68;4977;2018-04-16 23:33:01:371
-1.427;-10.694;-0.071;-2.762;-9.178;2.074;1.335;-1.516;-2.145;0.122;0.757;-0.132;1.9;0.8;32.0;51.68;4988;2018-04-16 23:33:01:382
-1.427;-10.694;-0.071;-2.762;-9.178;2.074;1.335;-1.516;-2.145;0.122;0.757;-0.132;2.0;1.2;32.0;51.68;4997;2018-04-16 23:33:01:391
-1.482;-10.876;0.097;-2.783;-9.195;1.969;1.323;-1.675;-1.841;-0.283;1.293;-0.147;2.0;1.2;32.0;51.68;5007;2018-04-16 23:33:01:401
-1.435;-10.866;0.314;-2.783;-9.195;1.969;1.323;-1.675;-1.841;-0.392;1.277;-0.137;2.0;1.5;32.0;51.68;5018;2018-04-16 23:33:01:412
-1.556;-10.982;0.558;-2.803;-9.219;1.825;1.246;-1.764;-1.268;-0.443;1.102;-0.136;2.0;1.5;32.0;51.68;5028;2018-04-16 23:33:01:422
-1.556;-10.982;0.558;-2.803;-9.219;1.825;1.246;-1.764;-1.268;-0.478;0.861;-0.133;1.9;1.8;32.0;51.68;5038;2018-04-16 23:33:01:432
-1.899;-11.094;1.117;-2.799;-9.244;1.7;0.783;-1.852;-0.429;-0.496;0.496;-0.131;1.9;1.8;32.0;51.68;5047;2018-04-16 23:33:01:441
-2.137;-11.1;1.371;-2.799;-9.244;1.7;0.783;-1.852;-0.429;-0.457;0.264;-0.137;1.8;2.1;32.0;51.68;5058;2018-04-16 23:33:01:452
-2.447;-10.991;1.419;-2.777;-9.266;1.614;0.33;-1.725;-0.195;-0.457;0.264;-0.137;1.8;2.2;32.0;51.68;5068;2018-04-16 23:33:01:462
-2.447;-10.991;1.419;-2.777;-9.266;1.614;0.33;-1.725;-0.195;-0.318;-0.215;-0.158;1.8;2.2;32.0;51.68;5077;2018-04-16 23:33:01:471
-2.862;-10.442;0.854;-2.737;-9.284;1.578;-0.184;-1.036;-0.864;-0.279;-0.45;-0.156;1.7;2.5;32.0;51.68;5087;2018-04-16 23:33:01:481
-3.06;-9.98;0.481;-2.737;-9.284;1.578;-0.184;-1.036;-0.864;-0.279;-0.45;-0.156;1.7;2.5;32.0;51.68;5098;2018-04-16 23:33:01:492
-3.235;-9.78;0.226;-2.694;-9.302;1.543;-0.541;-0.478;-1.316;-0.347;-0.679;-0.13;1.6;2.7;31.9;51.68;5108;2018-04-16 23:33:01:502
-3.235;-9.78;0.226;-2.694;-9.302;1.543;-0.541;-0.478;-1.316;-0.55;-0.748;-0.067;1.6;2.7;31.9;51.68;5117;2018-04-16 23:33:01:511
-3.596;-9.504;-0.13;-2.67;-9.324;1.453;-1.049;-0.057;-1.869;-0.721;-0.756;-0.006;1.5;2.8;31.8;51.68;5128;2018-04-16 23:33:01:522
-3.913;-9.183;-0.887;-2.67;-9.324;1.453;-1.049;-0.057;-1.869;-0.892;-0.804;0.055;1.5;3.0;31.8;51.68;5138;2018-04-16 23:33:01:532
-3.913;-9.183;-0.887;-2.67;-9.324;1.453;-1.049;-0.057;-1.869;-1.057;-0.883;0.115;1.5;3.0;31.8;51.68;5148;2018-04-16 23:33:01:542
-4.761;-8.988;-1.833;-2.674;-9.345;1.299;-1.844;0.328;-2.87;-1.28;-0.883;0.209;1.5;3.1;31.7;51.68;5158;2018-04-16 23:33:01:552
-5.254;-8.796;-2.091;-2.712;-9.364;1.06;-2.542;0.568;-3.151;-1.428;-0.826;0.254;1.5;3.2;31.8;51.64;5168;2018-04-16 23:33:01:562
-5.254;-8.796;-2.091;-2.712;-9.364;1.06;-2.542;0.568;-3.151;-1.428;-0.826;0.254;1.5;3.2;31.8;51.64;5177;2018-04-16 23:33:01:571
-4.885;-9.359;0.339;-2.795;-9.376;0.665;-2.09;0.017;-0.326;-2.117;-0.116;0.417;1.5;3.2;31.8;51.64;5188;2018-04-16 23:33:01:582
-4.885;-9.359;0.339;-2.795;-9.376;0.665;-2.09;0.017;-0.326;-2.36;0.337;0.474;1.5;3.1;31.6;51.64;5198;2018-04-16 23:33:01:592
-4.657;-10.204;1.36;-2.898;-9.367;0.159;-1.758;-1.032;1.495;-2.505;0.661;0.523;1.5;3.1;31.6;51.64;5207;2018-04-16 23:33:01:601
-4.792;-10.757;2.866;-2.898;-9.367;0.159;-1.758;-1.032;1.495;-2.55;0.838;0.533;1.5;3.0;31.7;51.64;5218;2018-04-16 23:33:01:612
-4.792;-10.757;2.866;-2.997;-9.331;-0.363;-1.88;-1.387;4.482;-2.495;0.972;0.536;1.5;3.0;31.7;51.64;5228;2018-04-16 23:33:01:622
-4.969;-10.586;5.04;-2.997;-9.331;-0.363;-1.88;-1.387;4.482;-2.345;1.234;0.542;1.5;2.8;31.5;51.64;5237;2018-04-16 23:33:01:631
-4.969;-10.586;5.04;-2.997;-9.331;-0.363;-1.88;-1.387;4.482;-2.345;1.234;0.542;1.5;2.8;31.5;51.64;5248;2018-04-16 23:33:01:642
-4.451;-9.95;5.125;-3.07;-9.275;-0.853;-1.381;-0.676;5.978;-1.921;2.044;0.494;1.4;2.5;31.6;51.64;5258;2018-04-16 23:33:01:652
-4.065;-10.354;2.611;-3.07;-9.275;-0.853;-1.381;-0.676;5.978;-1.503;2.765;0.285;1.3;2.2;31.5;51.64;5268;2018-04-16 23:33:01:662
-3.142;-10.484;-0.973;-3.063;-9.224;-1.303;-0.905;-1.24;2.912;-1.123;2.649;0.209;1.0;1.6;31.5;51.64;5281;2018-04-16 23:33:01:675
-3.142;-10.484;-0.973;-3.036;-9.183;-1.619;0.145;-1.26;0.26;-1.123;2.649;0.209;1.0;1.6;31.5;51.64;5288;2018-04-16 23:33:01:682
-2.532;-10.293;-1.445;-3.036;-9.183;-1.619;0.145;-1.26;0.26;-0.628;1.344;0.23;1.0;1.6;31.5;51.64;5298;2018-04-16 23:33:01:692
-2.532;-10.293;-1.445;-3.037;-9.153;-1.781;0.398;-0.99;0.44;-0.475;0.77;0.181;0.2;0.2;31.9;51.64;5307;2018-04-16 23:33:01:701
-2.539;-10.027;-1.568;-3.037;-9.153;-1.781;0.398;-0.99;0.44;-0.423;0.462;0.139;0.2;0.2;31.9;51.64;5318;2018-04-16 23:33:01:712
-2.155;-9.584;-1.299;-3.032;-9.132;-1.893;0.877;-0.452;0.595;-0.501;0.539;0.078;-0.7;-0.9;32.2;51.64;5328;2018-04-16 23:33:01:722
-2.155;-9.584;-1.299;-3.032;-9.132;-1.893;0.877;-0.452;0.595;-0.501;0.539;0.078;-0.7;-0.9;32.2;51.64;5338;2018-04-16 23:33:01:732
-2.309;-9.018;-0.127;-2.987;-9.112;-2.055;0.757;0.222;2.196;-0.615;0.993;0.005;-1.3;-1.7;31.9;51.64;5347;2018-04-16 23:33:01:741
-2.261;-8.558;0.625;-2.987;-9.112;-2.055;0.757;0.222;2.196;-0.621;1.45;-0.048;-1.3;-1.7;31.9;51.64;5357;2018-04-16 23:33:01:751
-2.261;-8.558;0.625;-2.885;-9.097;-2.257;0.575;0.603;2.748;-0.549;1.867;-0.116;-2.0;-2.4;32.1;51.64;5367;2018-04-16 23:33:01:761
-2.424;-8.526;0.354;-2.885;-9.097;-2.257;0.575;0.603;2.748;-0.42;2.021;-0.194;-2.0;-2.4;32.1;51.64;5377;2018-04-16 23:33:01:771
-2.844;-8.34;0.171;-2.748;-9.102;-2.403;-0.096;0.762;2.574;-0.147;1.789;-0.299;-2.7;-3.4;30.8;51.64;5387;2018-04-16 23:33:01:781
-2.844;-8.34;0.171;-2.748;-9.102;-2.403;-0.096;0.762;2.574;-0.147;1.789;-0.299;-2.7;-3.4;30.8;51.64;5397;2018-04-16 23:33:01:791
-3.12;-8.03;-0.59;-2.632;-9.124;-2.447;-0.487;1.094;1.857;0.098;1.174;-0.336;-3.8;-3.5;30.8;51.64;5407;2018-04-16 23:33:01:801
-3.571;-7.901;-0.766;-2.632;-9.124;-2.447;-0.487;1.094;1.857;0.139;0.628;-0.336;-3.9;-3.9;31.5;51.64;5418;2018-04-16 23:33:01:812
-3.674;-7.645;-1.255;-2.566;-9.143;-2.448;-1.108;1.498;1.193;0.024;0.138;-0.275;-3.9;-3.9;31.5;51.64;5428;2018-04-16 23:33:01:822
-3.674;-7.645;-1.255;-2.566;-9.143;-2.448;-1.108;1.498;1.193;0.024;0.138;-0.275;-4.6;-4.3;32.3;51.64;5438;2018-04-16 23:33:01:832
-3.839;-7.633;-1.49;-2.533;-9.139;-2.496;-1.418;1.465;0.971;-0.243;0.051;-0.175;-4.6;-4.3;32.3;51.64;5447;2018-04-16 23:33:01:841
-4.193;-7.608;-1.381;-2.533;-9.139;-2.496;-1.418;1.465;0.971;-0.423;0.027;-0.094;-4.8;-4.5;31.2;51.64;5457;2018-04-16 23:33:01:851
-4.193;-7.608;-1.381;-2.533;-9.139;-2.496;-1.418;1.465;0.971;-0.646;-0.116;0.06;-4.8;-4.5;31.2;51.64;5468;2018-04-16 23:33:01:862
-4.286;-7.284;-0.842;-2.54;-9.108;-2.6;-1.745;1.824;1.758;-0.646;-0.116;0.06;-5.2;-5.0;31.3;51.64;5478;2018-04-16 23:33:01:872
-4.173;-6.58;-0.23;-2.584;-9.06;-2.723;-1.589;2.479;2.493;-0.738;-0.15;0.2;-4.9;-5.0;30.5;52.14;5487;2018-04-16 23:33:01:881
-4.173;-6.58;-0.23;-2.584;-9.06;-2.723;-1.589;2.479;2.493;-0.599;-0.111;0.269;-4.9;-5.0;30.5;52.14;5498;2018-04-16 23:33:01:892
-3.609;-6.076;-0.504;-2.639;-9.013;-2.822;-0.97;2.937;2.318;-0.599;-0.111;0.269;-4.9;-5.0;30.5;52.14;5507;2018-04-16 23:33:01:901
-3.609;-6.076;-0.504;-2.639;-9.013;-2.822;-0.97;2.937;2.318;-0.599;-0.111;0.269;-4.9;-5.1;31.7;52.14;5519;2018-04-16 23:33:01:913
-3.292;-6.297;-0.779;-2.665;-8.998;-2.848;-0.627;2.701;2.068;-0.374;-0.211;0.246;-4.9;-5.1;31.7;52.14;5528;2018-04-16 23:33:01:922
-2.215;-6.731;-1.043;-2.73;-8.978;-2.849;0.515;2.246;1.807;-0.109;-0.363;0.248;-4.8;-5.2;31.5;52.14;5537;2018-04-16 23:33:01:931
-2.215;-6.731;-1.043;-2.73;-8.978;-2.849;0.515;2.246;1.807;0.131;-0.442;0.23;-4.8;-5.2;31.5;52.14;5547;2018-04-16 23:33:01:941
-1.496;-7.165;-1.399;-2.793;-8.976;-2.791;1.4;1.727;1.198;0.131;-0.442;0.23;-5.3;-5.4;31.6;52.14;5557;2018-04-16 23:33:01:951
-1.313;-7.483;-2.037;-2.793;-8.976;-2.791;1.4;1.727;1.198;0.331;-0.432;0.178;-5.3;-5.4;31.6;52.14;5567;2018-04-16 23:33:01:961
-1.313;-7.483;-2.037;-2.848;-8.985;-2.707;1.627;1.205;0.109;0.345;-0.409;0.169;-5.7;-5.6;31.5;52.14;5577;2018-04-16 23:33:01:971
-1.128;-8.006;-2.978;-2.848;-8.985;-2.707;1.627;1.205;0.109;0.334;-0.446;0.153;-5.7;-5.6;31.5;52.14;5587;2018-04-16 23:33:01:981
-0.901;-8.923;-3.785;-2.887;-8.996;-2.626;1.986;0.073;-1.159;0.307;-0.574;0.119;-6.0;-5.8;31.4;52.14;5597;2018-04-16 23:33:01:991
-0.901;-8.923;-3.785;-2.887;-8.996;-2.626;1.986;0.073;-1.159;0.28;-0.751;0.07;-6.0;-5.8;31.4;52.14;5607;2018-04-16 23:33:02:001
-0.587;-10.011;-4.231;-2.936;-9.008;-2.532;2.4;-1.356;-1.888;0.238;-0.935;0.017;-6.2;-5.8;31.4;52.14;5618;2018-04-16 23:33:02:012
-0.478;-10.687;-4.763;-2.964;-9.011;-2.487;2.577;-1.799;-2.524;0.167;-1.052;-0.007;-6.3;-5.9;31.4;52.14;5627;2018-04-16 23:33:02:021
-0.278;-11.05;-5.52;-2.964;-9.011;-2.487;2.577;-1.799;-2.524;-0.075;-1.08;-0.045;-6.3;-5.9;31.4;52.14;5637;2018-04-16 23:33:02:031
-0.278;-11.05;-5.52;-3.002;-9.008;-2.454;2.512;-2.153;-2.828;-0.231;-1.026;-0.099;-6.4;-6.0;31.2;52.14;5648;2018-04-16 23:33:02:042
-0.654;-11.044;-5.003;-3.002;-9.008;-2.454;2.512;-2.153;-2.828;-0.231;-1.026;-0.099;-6.4;-6.0;31.2;52.14;5658;2018-04-16 23:33:02:052
-0.654;-11.044;-5.003;-3.002;-9.008;-2.454;2.512;-2.153;-2.828;-0.261;-0.882;-0.186;-6.5;-6.1;31.3;52.14;5667;2018-04-16 23:33:02:061
-1.14;-10.52;-4.867;-3.01;-9.007;-2.447;1.87;-1.513;-2.42;-0.193;-0.726;-0.26;-6.4;-6.1;31.3;52.14;5677;2018-04-16 23:33:02:071
-1.14;-10.52;-4.867;-3.01;-9.007;-2.447;1.87;-1.513;-2.42;-0.193;-0.726;-0.26;-6.4;-6.1;31.3;52.14;5688;2018-04-16 23:33:02:082
-1.975;-9.663;-6.019;-2.968;-9.022;-2.443;0.992;-0.641;-3.576;-0.109;-0.354;-0.409;-6.3;-6.1;31.3;52.14;5698;2018-04-16 23:33:02:092
-2.886;-8.958;-5.989;-2.968;-9.022;-2.443;0.992;-0.641;-3.576;-0.031;-0.125;-0.509;-6.3;-6.1;31.3;52.14;5708;2018-04-16 23:33:02:102
-2.886;-8.958;-5.989;-2.884;-9.05;-2.439;-0.107;0.37;-3.148;-0.031;-0.125;-0.509;-6.2;-6.1;31.4;52.14;5718;2018-04-16 23:33:02:112
-2.886;-8.322;-4.118;-2.852;-9.063;-2.428;-0.511;0.741;-1.69;0.18;-0.159;-0.476;-6.2;-6.1;31.4;52.14;5728;2018-04-16 23:33:02:122
-3.363;-8.322;-4.118;-2.852;-9.063;-2.428;-0.511;0.741;-1.69;0.18;-0.159;-0.476;-6.1;-6.1;31.4;52.14;5737;2018-04-16 23:33:02:131
-5.504;-8.116;-1.189;-2.804;-9.12;-2.267;-2.701;1.004;1.078;0.495;-0.637;-0.312;-6.1;-6.1;31.4;52.14;5748;2018-04-16 23:33:02:142
-5.504;-8.116;-1.189;-2.804;-9.12;-2.267;-2.701;1.004;1.078;0.495;-0.637;-0.312;-5.7;-6.1;31.4;52.14;5757;2018-04-16 23:33:02:151
-6.495;-8.35;-0.658;-2.817;-9.145;-2.144;-3.774;0.832;1.597;0.458;-0.673;-0.143;-5.7;-6.1;31.4;52.14;5768;2018-04-16 23:33:02:162
-6.528;-8.429;-0.893;-2.83;-9.15;-2.109;-3.698;0.721;1.216;0.326;-0.604;-0.022;-5.4;-6.0;31.4;52.14;5777;2018-04-16 23:33:02:171
-6.528;-8.429;-0.893;-2.83;-9.15;-2.109;-3.698;0.721;1.216;0.164;-0.357;0.067;-5.4;-6.0;31.4;52.14;5787;2018-04-16 23:33:02:181
-5.533;-9.868;-3.808;-2.859;-9.151;-2.064;-2.079;-1.508;-2.932;0.164;-0.357;0.067;-5.2;-5.9;31.4;51.68;5797;2018-04-16 23:33:02:191
-3.303;-12.26;-6.506;-2.859;-9.151;-2.064;-2.079;-1.508;-2.932;0.093;-0.404;0.093;-5.2;-5.9;31.4;51.68;5808;2018-04-16 23:33:02:202
-3.303;-12.26;-6.506;-2.89;-9.15;-2.026;1.36;-3.765;-3.095;0.049;-0.557;0.065;-4.9;-5.7;31.5;51.68;5818;2018-04-16 23:33:02:212
-0.946;-12.578;-3.525;-2.89;-9.15;-2.026;1.36;-3.765;-3.095;0.016;-0.082;-0.109;-4.9;-5.7;31.5;51.68;5827;2018-04-16 23:33:02:221
-0.71;-9.548;0.139;-2.84;-9.168;-2.015;2.13;-0.38;2.154;0.016;-0.082;-0.109;-4.6;-5.5;31.5;51.68;5837;2018-04-16 23:33:02:231
-0.71;-9.548;0.139;-2.84;-9.168;-2.015;2.13;-0.38;2.154;0.263;0.921;-0.39;-4.6;-5.5;31.5;51.68;5847;2018-04-16 23:33:02:241
-2.23;-7.061;2.714;-2.722;-9.203;-2.015;-0.16;2.427;5.158;0.323;1.018;-0.478;-4.3;-5.4;31.6;51.68;5857;2018-04-16 23:33:02:251
-4.634;-6.58;3.211;-2.722;-9.203;-2.015;-0.16;2.427;5.158;0.369;0.97;-0.483;-4.3;-5.4;31.6;51.68;5867;2018-04-16 23:33:02:261
-4.634;-6.58;3.211;-2.618;-9.241;-1.981;-2.807;2.341;4.467;0.403;0.831;-0.398;-4.0;-5.2;31.6;51.68;5877;2018-04-16 23:33:02:271
-5.669;-7.162;1.999;-2.618;-9.241;-1.981;-2.807;2.341;4.467;0.401;0.753;-0.243;-4.0;-5.2;31.6;51.68;5888;2018-04-16 23:33:02:282
-5.883;-7.745;1.415;-2.606;-9.251;-1.947;-3.221;1.804;3.631;0.382;0.742;-0.148;-3.9;-5.0;31.7;51.68;5897;2018-04-16 23:33:02:291
-5.883;-7.745;1.415;-2.606;-9.251;-1.947;-3.221;1.804;3.631;0.33;0.842;0.04;-3.9;-5.0;31.7;51.68;5908;2018-04-16 23:33:02:302
-6.003;-9.025;-0.045;-2.609;-9.254;-1.93;-3.395;0.229;1.884;0.195;0.891;0.391;-3.7;-4.7;31.7;51.68;5917;2018-04-16 23:33:02:311
-5.684;-10.306;-1.799;-2.667;-9.236;-1.939;-3.017;-1.07;0.14;0.125;0.594;0.528;-3.7;-4.7;31.7;51.68;5927;2018-04-16 23:33:02:321
-5.684;-10.306;-1.799;-2.667;-9.236;-1.939;-3.017;-1.07;0.14;0.125;0.594;0.528;-3.7;-4.5;31.8;51.68;5937;2018-04-16 23:33:02:331
-4.954;-10.06;-0.724;-2.795;-9.207;-1.895;-2.102;-0.758;1.655;0.177;-0.198;0.667;-3.7;-4.5;31.8;51.68;5948;2018-04-16 23:33:02:342
-4.809;-9.846;0.093;-2.795;-9.207;-1.895;-2.102;-0.758;1.655;0.243;-0.562;0.649;-3.7;-4.3;31.8;51.68;5958;2018-04-16 23:33:02:352
-4.638;-9.779;-0.074;-2.944;-9.182;-1.788;-1.693;-0.597;1.713;0.356;-0.959;0.648;-3.7;-4.3;31.8;51.68;5967;2018-04-16 23:33:02:361
-4.638;-9.779;-0.074;-2.944;-9.182;-1.788;-1.693;-0.597;1.713;0.356;-0.959;0.648;-3.7;-4.1;31.8;51.68;5978;2018-04-16 23:33:02:372
-4.082;-9.509;-0.188;-2.944;-9.182;-1.788;-1.693;-0.597;1.713;0.468;-1.378;0.709;-3.7;-4.1;31.8;51.68;5987;2018-04-16 23:33:02:381
-3.724;-9.413;0.048;-3.123;-9.155;-1.613;-0.822;-0.325;1.497;0.5;-1.566;0.71;-3.8;-3.9;31.8;51.68;5998;2018-04-16 23:33:02:392
-3.194;-9.09;0.466;-3.295;-9.128;-1.413;0.101;0.038;1.879;0.432;-1.534;0.66;-3.8;-3.9;31.8;51.68;6007;2018-04-16 23:33:02:401
-3.194;-9.09;0.466;-3.295;-9.128;-1.413;0.101;0.038;1.879;0.432;-1.534;0.66;-3.7;-3.7;31.7;51.68;6018;2018-04-16 23:33:02:412
-2.871;-8.723;0.543;-3.435;-9.098;-1.267;0.627;0.419;1.768;0.287;-1.269;0.586;-3.7;-3.7;31.7;51.68;6028;2018-04-16 23:33:02:422
-2.52;-8.697;0.588;-3.435;-9.098;-1.267;0.627;0.419;1.768;0.187;-1.087;0.569;-3.6;-3.4;31.7;51.68;6037;2018-04-16 23:33:02:431
-2.116;-9.21;0.626;-3.551;-9.068;-1.155;1.435;-0.143;1.781;0.159;-0.993;0.553;-3.6;-3.4;31.7;51.68;6047;2018-04-16 23:33:02:441
-2.116;-9.21;0.626;-3.551;-9.068;-1.155;1.435;-0.143;1.781;0.241;-0.985;0.513;-3.5;-3.2;31.7;51.68;6059;2018-04-16 23:33:02:453
-1.356;-10.039;0.809;-3.639;-9.052;-0.997;2.507;-1.151;1.821;0.403;-0.98;0.448;-3.5;-3.2;31.7;51.68;6068;2018-04-16 23:33:02:462
-0.605;-10.459;0.846;-3.639;-9.052;-0.997;2.507;-1.151;1.821;0.716;-0.812;0.249;-3.4;-2.9;31.7;51.68;6077;2018-04-16 23:33:02:471
-0.605;-10.459;0.846;-3.67;-9.059;-0.8;3.189;-1.489;1.661;0.897;-0.575;0.061;-3.4;-2.9;31.7;51.68;6088;2018-04-16 23:33:02:482
-0.425;-10.405;0.839;-3.67;-9.059;-0.8;3.189;-1.489;1.661;0.897;-0.575;0.061;-3.2;-2.6;31.9;51.68;6098;2018-04-16 23:33:02:492
-0.33;-9.938;0.268;-3.624;-9.093;-0.594;3.294;-0.845;0.862;1.082;-0.076;-0.138;-3.2;-2.6;31.9;51.68;6108;2018-04-16 23:33:02:502
-0.33;-9.938;0.268;-3.624;-9.093;-0.594;3.294;-0.845;0.862;1.168;0.358;-0.292;-3.1;-2.4;31.9;51.68;6117;2018-04-16 23:33:02:511
-1.124;-9.564;-0.224;-3.54;-9.136;-0.409;2.37;-0.183;0.111;1.178;0.483;-0.351;-3.0;-2.3;31.9;55.14;6128;2018-04-16 23:33:02:522
-1.516;-8.932;-0.752;-3.54;-9.136;-0.409;2.37;-0.183;0.111;1.178;0.483;-0.351;-3.0;-2.3;31.9;55.14;6138;2018-04-16 23:33:02:532
-1.516;-8.932;-0.752;-3.443;-9.179;-0.246;1.432;0.225;-0.059;1.059;0.513;-0.505;-2.9;-2.0;31.8;55.14;6148;2018-04-16 23:33:02:542
-1.95;-8.655;-0.019;-3.443;-9.179;-0.246;1.432;0.225;-0.059;0.871;0.436;-0.426;-2.9;-2.0;31.8;55.14;6158;2018-04-16 23:33:02:552
-2.039;-8.525;-0.274;-3.369;-9.209;-0.125;1.358;0.668;-0.486;0.729;0.275;-0.36;-2.8;-1.7;31.9;55.14;6167;2018-04-16 23:33:02:561
-2.118;-8.786;-1.123;-3.369;-9.209;-0.125;1.358;0.668;-0.486;0.426;-0.263;-0.293;-2.7;-1.4;31.8;55.14;6177;2018-04-16 23:33:02:571
-2.118;-8.786;-1.123;-3.311;-9.231;-0.036;0.931;0.133;-1.176;0.426;-0.263;-0.293;-2.7;-1.4;31.8;55.14;6187;2018-04-16 23:33:02:581
-2.531;-9.317;-1.196;-3.311;-9.231;-0.036;0.931;0.133;-1.176;0.254;-0.672;-0.236;-2.7;-1.4;31.8;55.14;6198;2018-04-16 23:33:02:592
-2.911;-9.565;-0.752;-3.27;-9.245;0.058;0.359;-0.32;-0.81;0.164;-1.075;-0.197;-2.6;-1.1;31.7;55.14;6207;2018-04-16 23:33:02:601
-2.911;-9.565;-0.752;-3.27;-9.245;0.058;0.359;-0.32;-0.81;0.147;-1.458;-0.16;-2.6;-1.1;31.7;55.14;6217;2018-04-16 23:33:02:611
-3.238;-9.485;0.044;-3.238;-9.255;0.182;-0.106;-0.132;0.093;0.171;-1.476;-0.15;-2.4;-0.7;31.6;55.14;6227;2018-04-16 23:33:02:621
-3.4;-9.115;0.619;-3.238;-9.255;0.182;-0.106;-0.132;0.093;0.171;-1.476;-0.15;-2.4;-0.7;31.6;55.14;6237;2018-04-16 23:33:02:631
-3.4;-9.115;0.619;-3.21;-9.262;0.293;-0.104;0.433;0.508;0.184;-1.146;-0.127;-2.0;-0.4;31.5;55.14;6247;2018-04-16 23:33:02:641
-3.191;-8.711;0.871;-3.21;-9.262;0.293;-0.104;0.433;0.508;0.177;-0.82;-0.134;-2.0;-0.4;31.5;55.14;6257;2018-04-16 23:33:02:651
-3.0;-8.616;0.98;-3.18;-9.27;0.358;0.18;0.654;0.623;0.159;-0.494;-0.15;-1.6;0.0;31.4;55.14;6267;2018-04-16 23:33:02:661
-3.0;-8.616;0.98;-3.18;-9.27;0.358;0.18;0.654;0.623;0.139;-0.073;-0.149;-1.6;0.0;31.4;55.14;6277;2018-04-16 23:33:02:671
-2.731;-8.568;1.087;-3.15;-9.279;0.384;0.459;0.632;0.771;0.144;0.149;-0.165;-1.3;0.3;31.3;55.14;6287;2018-04-16 23:33:02:681
-2.762;-8.765;1.283;-3.15;-9.279;0.384;0.459;0.632;0.771;0.187;0.325;-0.192;-1.3;0.3;31.3;55.14;6297;2018-04-16 23:33:02:691
-2.762;-8.765;1.283;-3.115;-9.29;0.407;0.22;0.334;0.966;0.255;0.485;-0.206;-1.1;0.7;31.4;55.14;6308;2018-04-16 23:33:02:702
-2.933;-9.026;1.378;-3.115;-9.29;0.407;0.22;0.334;0.966;0.255;0.485;-0.206;-1.1;0.7;31.4;55.14;6318;2018-04-16 23:33:02:712
-3.2;-9.25;1.348;-3.085;-9.298;0.436;-0.115;0.048;0.912;0.351;0.715;-0.192;-0.8;1.1;31.4;55.14;6328;2018-04-16 23:33:02:722
-3.2;-9.25;1.348;-3.085;-9.298;0.436;-0.115;0.048;0.912;0.384;0.865;-0.162;-0.8;1.2;31.4;55.14;6337;2018-04-16 23:33:02:731
-3.399;-9.173;1.171;-3.072;-9.302;0.465;-0.407;0.102;0.584;0.473;1.009;-0.125;-0.8;1.2;31.4;55.14;6348;2018-04-16 23:33:02:742
-3.844;-9.395;0.554;-3.072;-9.302;0.465;-0.407;0.102;0.584;0.473;1.009;-0.125;-0.7;1.5;31.3;55.14;6358;2018-04-16 23:33:02:752
-3.994;-9.561;0.103;-3.064;-9.299;0.555;-0.929;-0.262;-0.452;0.743;0.86;-0.108;-0.7;1.5;31.3;55.14;6367;2018-04-16 23:33:02:761
-3.994;-9.561;0.103;-3.064;-9.299;0.555;-0.929;-0.262;-0.452;0.985;0.573;-0.072;-0.7;1.9;31.3;55.14;6377;2018-04-16 23:33:02:771
-3.806;-9.656;-0.095;-3.066;-9.286;0.739;-0.545;-0.273;-0.873;1.131;0.294;-0.031;-0.7;1.9;31.3;55.14;6387;2018-04-16 23:33:02:781
-3.206;-9.238;-0.217;-3.066;-9.286;0.739;-0.545;-0.273;-0.873;1.054;0.138;0.034;-0.7;2.3;31.2;55.14;6397;2018-04-16 23:33:02:791
-3.206;-9.238;-0.217;-3.077;-9.268;0.902;0.122;0.333;-1.33;0.91;0.121;0.049;-0.7;2.3;31.2;55.14;6408;2018-04-16 23:33:02:802
-2.954;-8.935;-0.429;-3.077;-9.268;0.902;0.122;0.333;-1.33;0.91;0.121;0.049;-0.8;2.6;31.0;55.14;6418;2018-04-16 23:33:02:812
-2.403;-8.742;-0.948;-3.086;-9.248;1.056;0.684;0.506;-2.005;0.853;-0.25;0.082;-0.8;2.6;31.0;55.14;6427;2018-04-16 23:33:02:821
-2.403;-8.742;-0.948;-3.086;-9.248;1.056;0.684;0.506;-2.005;0.853;-0.25;0.082;-0.9;3.0;30.8;55.14;6437;2018-04-16 23:33:02:831
-2.175;-9.142;-0.854;-3.075;-9.228;1.248;0.921;-0.07;-2.025;0.888;-0.789;0.066;-0.9;3.0;30.8;55.14;6448;2018-04-16 23:33:02:842
-2.139;-9.616;-0.579;-3.075;-9.228;1.248;0.921;-0.07;-2.025;0.751;-0.841;0.067;-0.9;3.4;30.7;54.27;6457;2018-04-16 23:33:02:851
-2.139;-9.616;-0.579;-3.067;-9.212;1.381;1.006;-0.572;-1.841;0.562;-0.773;0.103;-0.9;3.4;30.7;54.27;6467;2018-04-16 23:33:02:861
-2.003;-9.898;-0.351;-3.067;-9.212;1.381;1.006;-0.572;-1.841;0.363;-0.652;0.153;-0.8;3.7;30.7;54.27;6478;2018-04-16 23:33:02:872
-1.885;-10.32;0.045;-3.079;-9.197;1.448;1.194;-1.123;-1.402;0.22;-0.534;0.182;-0.8;3.7;30.7;54.27;6488;2018-04-16 23:33:02:882
-1.885;-10.32;0.045;-3.079;-9.197;1.448;1.194;-1.123;-1.402;0.181;-0.419;0.166;-0.7;4.1;30.7;54.27;6497;2018-04-16 23:33:02:891
-1.931;-10.884;0.867;-3.097;-9.182;1.505;1.156;-1.788;-0.411;0.261;-0.154;0.123;-0.7;4.1;30.7;54.27;6508;2018-04-16 23:33:02:902
-1.75;-10.877;1.196;-3.097;-9.182;1.505;1.156;-1.788;-0.411;0.261;-0.154;0.123;-0.7;4.5;30.7;54.27;6517;2018-04-16 23:33:02:911
-1.505;-10.782;0.869;-3.12;-9.165;1.563;1.615;-1.618;-0.694;0.389;0.221;0.097;-0.7;4.5;30.7;54.27;6528;2018-04-16 23:33:02:922
-1.505;-10.782;0.869;-3.12;-9.165;1.563;1.615;-1.618;-0.694;0.462;0.375;0.067;-0.7;4.8;30.6;54.27;6538;2018-04-16 23:33:02:932
-1.129;-10.794;0.292;-3.139;-9.147;1.627;2.079;-1.683;-1.423;0.489;0.379;0.027;-0.7;4.8;30.6;54.27;6547;2018-04-16 23:33:02:941
-0.903;-11.018;0.043;-3.139;-9.147;1.627;2.079;-1.683;-1.423;0.489;0.379;0.027;-0.8;5.1;30.5;54.27;6558;2018-04-16 23:33:02:952
-0.903;-11.018;0.043;-3.144;-9.133;1.698;2.433;-2.01;-1.842;0.448;0.186;-0.001;-0.8;5.1;30.5;54.27;6567;2018-04-16 23:33:02:961
-0.643;-11.168;-0.249;-3.144;-9.133;1.698;2.433;-2.01;-1.842;0.409;-0.043;-0.01;-0.8;5.4;30.3;54.27;6578;2018-04-16 23:33:02:972
-0.614;-11.171;-0.42;-3.123;-9.122;1.788;2.509;-2.049;-2.208;0.363;-0.483;-0.064;-0.8;5.4;30.3;54.27;6590;2018-04-16 23:33:02:984
-0.614;-11.171;-0.42;-3.123;-9.122;1.788;2.509;-2.049;-2.208;0.363;-0.483;-0.064;-0.9;5.8;30.2;54.27;6598;2018-04-16 23:33:02:992
-1.307;-11.413;-0.129;-3.063;-9.12;1.899;1.578;-2.281;-2.012;0.316;-0.902;-0.148;-0.9;5.8;30.2;54.27;6608;2018-04-16 23:33:03:002
-1.307;-11.413;-0.129;-3.063;-9.12;1.899;1.578;-2.281;-2.012;0.243;-1.085;-0.219;-1.0;6.1;30.0;54.27;6617;2018-04-16 23:33:03:011
-2.534;-11.021;-0.498;-2.974;-9.128;2.001;0.159;-1.745;-2.625;0.164;-1.097;-0.286;-1.0;6.1;30.0;54.27;6628;2018-04-16 23:33:03:022
-3.613;-10.41;-0.856;-2.974;-9.128;2.001;0.159;-1.745;-2.625;0.164;-1.097;-0.286;-1.0;6.5;29.9;54.27;6637;2018-04-16 23:33:03:031
-3.613;-10.026;-0.769;-2.974;-9.128;2.001;-1.156;-0.873;-2.811;-0.039;-0.935;-0.375;-1.0;6.5;29.9;54.27;6648;2018-04-16 23:33:03:042
-4.025;-10.026;-0.769;-2.869;-9.152;2.043;-1.156;-0.873;-2.811;-0.272;-0.622;-0.398;-1.0;6.9;29.8;54.27;6658;2018-04-16 23:33:03:052
-4.123;-9.507;0.025;-2.798;-9.2;1.925;-1.246;-0.111;-1.566;-0.779;0.155;-0.384;-1.0;6.9;29.8;54.27;6668;2018-04-16 23:33:03:062
-3.985;-9.146;0.898;-2.798;-9.2;1.925;-1.246;-0.111;-1.566;-0.779;0.155;-0.384;-0.9;7.2;29.6;54.27;6677;2018-04-16 23:33:03:071
-3.985;-9.146;0.898;-2.785;-9.259;1.639;-1.374;0.169;-0.758;-1.383;1.097;-0.279;-0.9;7.2;29.6;54.27;6688;2018-04-16 23:33:03:082
-4.179;-8.97;0.707;-2.785;-9.259;1.639;-1.374;0.169;-0.758;-1.598;1.227;-0.184;-0.9;7.5;29.6;54.27;6697;2018-04-16 23:33:03:091
-4.758;-8.882;0.297;-2.804;-9.313;1.252;-1.955;0.431;-0.956;-1.781;1.097;-0.126;-0.9;7.8;29.5;54.27;6708;2018-04-16 23:33:03:102
-4.758;-8.882;0.297;-2.804;-9.313;1.252;-1.955;0.431;-0.956;-1.967;0.29;0.04;-0.9;7.8;29.5;54.27;6717;2018-04-16 23:33:03:111
-5.68;-9.264;-0.406;-2.822;-9.351;0.87;-2.858;0.087;-1.276;-1.967;0.29;0.04;-0.9;7.8;29.5;54.27;6727;2018-04-16 23:33:03:121
-5.68;-9.264;-0.406;-2.822;-9.351;0.87;-2.858;0.087;-1.276;-2.057;-0.524;0.205;-0.9;7.9;29.5;54.27;6738;2018-04-16 23:33:03:132
-6.116;-9.844;-0.109;-2.86;-9.366;0.518;-3.275;-0.736;-0.206;-2.149;-0.954;0.296;-0.9;7.9;29.5;54.27;6747;2018-04-16 23:33:03:141
-5.85;-10.406;1.861;-2.86;-9.366;0.518;-3.275;-0.736;-0.206;-2.149;-0.954;0.296;-0.9;7.9;29.6;54.27;6758;2018-04-16 23:33:03:152
-5.85;-10.406;1.861;-2.929;-9.358;0.151;-2.785;-1.269;2.98;-2.254;-0.974;0.397;-0.9;7.9;29.6;54.27;6767;2018-04-16 23:33:03:161
-5.668;-10.795;3.619;-2.929;-9.358;0.151;-2.785;-1.269;2.98;-2.249;-0.633;0.463;-1.0;7.8;29.5;53.86;6777;2018-04-16 23:33:03:171
-5.094;-10.497;4.56;-3.029;-9.324;-0.256;-2.065;-1.174;4.816;-2.195;0.14;0.561;-1.0;7.8;29.5;53.86;6788;2018-04-16 23:33:03:182
-5.094;-10.497;4.56;-3.029;-9.324;-0.256;-2.065;-1.174;4.816;-2.195;0.14;0.561;-1.0;7.6;29.5;53.86;6797;2018-04-16 23:33:03:191
-4.946;-10.054;5.818;-3.118;-9.271;-0.702;-1.588;-0.61;6.47;-2.031;1.133;0.547;-1.0;7.6;29.5;53.86;6808;2018-04-16 23:33:03:202
-4.395;-9.589;5.328;-3.118;-9.271;-0.702;-1.588;-0.61;6.47;-1.709;2.27;0.469;-1.0;7.3;29.5;53.86;6818;2018-04-16 23:33:03:212
-4.12;-9.4;3.598;-3.147;-9.216;-1.154;-0.974;-0.184;4.753;-1.469;2.819;0.375;-1.0;7.3;29.5;53.86;6828;2018-04-16 23:33:03:222
-4.12;-9.4;3.598;-3.147;-9.216;-1.154;-0.974;-0.184;4.753;-1.469;2.819;0.375;-1.1;6.9;29.6;53.86;6838;2018-04-16 23:33:03:232
-4.189;-9.784;0.311;-3.123;-9.165;-1.557;-1.066;-0.619;1.868;-1.233;2.911;0.282;-1.2;6.7;29.7;53.86;6848;2018-04-16 23:33:03:242
-4.189;-9.784;0.311;-3.123;-9.165;-1.557;-1.066;-0.619;1.868;-1.233;2.911;0.282;-1.2;6.7;29.7;53.86;6857;2018-04-16 23:33:03:251
-3.232;-10.035;-1.626;-3.107;-9.115;-1.854;-0.002;-1.067;-0.127;-0.93;2.006;0.299;-1.7;5.7;30.3;53.86;6868;2018-04-16 23:33:03:262
-3.006;-10.38;-2.74;-3.107;-9.115;-1.854;-0.002;-1.067;-0.127;-0.821;1.528;0.227;-1.7;5.7;30.3;53.86;6877;2018-04-16 23:33:03:271
-3.006;-10.38;-2.74;-3.09;-9.071;-2.082;0.319;-0.97;-0.15;-0.876;1.139;0.15;-2.9;3.9;30.0;53.86;6888;2018-04-16 23:33:03:282
-2.77;-10.041;-2.231;-3.09;-9.071;-2.082;0.319;-0.97;-0.15;-0.876;1.139;0.15;-3.6;3.5;30.1;53.86;6897;2018-04-16 23:33:03:291
-2.526;-8.849;0.272;-3.046;-9.03;-2.312;0.52;0.181;2.584;-0.847;1.499;0.095;-3.6;3.5;30.1;53.86;6907;2018-04-16 23:33:03:301
-2.526;-8.849;0.272;-3.046;-9.03;-2.312;0.52;0.181;2.584;-0.847;1.499;0.095;-4.5;2.3;30.0;53.86;6918;2018-04-16 23:33:03:312
-1.954;-8.181;0.253;-2.946;-9.006;-2.528;1.02;0.774;2.737;-0.573;1.928;-0.029;-4.5;2.2;31.1;53.86;6928;2018-04-16 23:33:03:322
-1.833;-8.447;0.126;-2.946;-9.006;-2.528;1.02;0.774;2.737;-0.404;1.945;-0.18;-4.5;2.2;31.1;53.86;6937;2018-04-16 23:33:03:331
-2.139;-8.722;-0.781;-2.805;-9.013;-2.659;0.666;0.291;1.878;-0.167;1.372;-0.376;-6.2;1.1;30.4;53.86;6948;2018-04-16 23:33:03:342
-2.139;-8.722;-0.781;-2.805;-9.013;-2.659;0.666;0.291;1.878;-0.208;0.723;-0.365;-6.2;1.0;31.5;53.86;6958;2018-04-16 23:33:03:352
-2.721;-9.11;-1.608;-2.74;-9.01;-2.736;0.116;-0.106;1.085;-0.208;0.723;-0.365;-6.2;1.0;31.5;53.86;6968;2018-04-16 23:33:03:362
-2.677;-8.724;-0.447;-2.74;-9.01;-2.736;0.116;-0.106;1.085;-0.927;-0.516;0.056;-6.5;0.9;30.8;53.86;6978;2018-04-16 23:33:03:372
-2.677;-8.724;-0.447;-2.791;-8.943;-2.898;-0.333;1.065;2.475;-1.221;-0.469;0.188;-6.5;0.9;30.8;53.86;6988;2018-04-16 23:33:03:382
-3.579;-7.506;-0.529;-2.791;-8.943;-2.898;-0.333;1.065;2.475;-1.221;-0.469;0.188;-7.0;0.3;30.4;53.86;6997;2018-04-16 23:33:03:391
-4.472;-6.764;-0.822;-2.825;-8.843;-3.161;-1.647;2.079;2.338;-1.427;0.227;0.259;-7.0;0.3;30.4;53.86;7007;2018-04-16 23:33:03:401
-4.472;-6.764;-0.822;-2.825;-8.843;-3.161;-1.647;2.079;2.338;-1.25;0.18;0.232;-6.8;-0.4;31.1;53.86;7017;2018-04-16 23:33:03:411
-4.725;-6.009;-0.296;-2.855;-8.759;-3.361;-1.796;2.982;3.179;-0.982;0.076;0.193;-6.8;-0.4;31.1;53.86;7027;2018-04-16 23:33:03:421
-4.354;-5.303;-0.115;-2.855;-8.759;-3.361;-1.796;2.982;3.179;-0.982;0.076;0.193;-6.8;-0.5;31.1;53.86;7038;2018-04-16 23:33:03:432
-3.818;-5.029;0.023;-2.867;-8.716;-3.462;-0.95;3.687;3.484;-0.558;0.101;0.112;-6.8;-0.5;31.1;53.86;7048;2018-04-16 23:33:03:442
-3.818;-5.029;0.023;-2.867;-8.716;-3.462;-0.95;3.687;3.484;-0.315;0.123;0.062;-6.9;-0.5;30.6;53.86;7057;2018-04-16 23:33:03:451
-2.862;-4.893;0.227;-2.867;-8.716;-3.462;-0.95;3.687;3.484;-0.095;0.137;0.035;-7.2;-1.3;30.7;53.86;7067;2018-04-16 23:33:03:461
-2.862;-4.893;0.227;-2.864;-8.708;-3.484;0.002;3.815;3.712;-0.095;0.137;0.035;-7.2;-1.3;30.7;53.86;7078;2018-04-16 23:33:03:472
-2.082;-5.052;-0.063;-2.859;-8.73;-3.433;0.925;3.63;3.193;0.342;0.193;0.031;-7.3;-0.9;31.0;53.86;7088;2018-04-16 23:33:03:482
-1.568;-5.296;-0.548;-2.859;-8.73;-3.433;0.925;3.63;3.193;0.65;0.009;0.112;-7.3;-0.9;31.0;53.86;7097;2018-04-16 23:33:03:491
-1.568;-5.296;-0.548;-2.888;-8.772;-3.299;1.65;3.254;2.401;0.815;-0.156;0.161;-7.2;-0.9;30.7;57.25;7107;2018-04-16 23:33:03:501
-1.128;-5.759;-1.159;-2.888;-8.772;-3.299;1.65;3.254;2.401;0.815;-0.156;0.161;-7.2;-0.9;30.7;57.25;7118;2018-04-16 23:33:03:512
-1.063;-6.744;-2.051;-2.938;-8.824;-3.11;1.875;2.079;1.06;0.96;-0.341;0.161;-7.8;-1.2;30.7;57.25;7128;2018-04-16 23:33:03:522
-1.063;-6.744;-2.051;-2.938;-8.824;-3.11;1.875;2.079;1.06;0.969;-0.48;0.128;-7.8;-1.2;30.7;57.25;7138;2018-04-16 23:33:03:532
-1.226;-8.283;-3.3;-2.981;-8.875;-2.918;1.695;-0.099;-0.888;0.842;-0.778;0.023;-8.2;-1.5;30.7;57.25;7148;2018-04-16 23:33:03:542
-1.353;-9.793;-4.499;-2.981;-8.875;-2.918;1.695;-0.099;-0.888;0.842;-0.778;0.023;-8.4;-1.6;30.6;57.25;7157;2018-04-16 23:33:03:551
-1.302;-11.52;-6.048;-3.034;-8.91;-2.753;1.732;-2.61;-3.295;0.541;-1.192;-0.082;-8.4;-1.6;30.6;57.25;7167;2018-04-16 23:33:03:561
-1.302;-11.52;-6.048;-3.034;-8.91;-2.753;1.732;-2.61;-3.295;0.248;-1.449;-0.133;-8.7;-1.7;30.5;57.25;7179;2018-04-16 23:33:03:573
-0.888;-12.608;-7.681;-3.034;-8.91;-2.753;1.732;-2.61;-3.295;-0.072;-1.621;-0.158;-8.7;-1.8;30.5;57.25;7187;2018-04-16 23:33:03:581
-0.314;-12.389;-6.996;-3.095;-8.915;-2.668;2.428;-3.718;-5.104;-0.442;-1.719;-0.138;-8.7;-1.8;30.5;57.25;7198;2018-04-16 23:33:03:592
-0.314;-12.389;-6.996;-3.15;-8.9;-2.652;2.696;-3.059;-3.214;-0.485;-1.494;-0.186;-8.9;-1.8;30.6;57.25;7208;2018-04-16 23:33:03:602
-0.684;-11.705;-5.517;-3.15;-8.9;-2.652;2.696;-3.059;-3.214;-0.351;-0.988;-0.269;-8.9;-1.8;30.5;57.25;7218;2018-04-16 23:33:03:612
-1.612;-10.718;-6.114;-3.128;-8.908;-2.651;1.515;-1.809;-3.462;-0.351;-0.988;-0.269;-8.9;-1.8;30.5;57.25;7227;2018-04-16 23:33:03:621
-1.612;-10.718;-6.114;-3.128;-8.908;-2.651;1.515;-1.809;-3.462;0.111;0.161;-0.431;-8.8;-1.9;30.5;57.25;7237;2018-04-16 23:33:03:631
-2.781;-10.184;-7.253;-3.03;-8.948;-2.632;0.249;-1.236;-4.621;0.309;0.447;-0.474;-8.8;-1.9;30.5;57.25;7247;2018-04-16 23:33:03:641
-2.781;-10.184;-7.253;-3.03;-8.948;-2.632;0.249;-1.236;-4.621;0.495;0.483;-0.476;-8.7;-1.9;30.5;57.25;7257;2018-04-16 23:33:03:651
-3.229;-10.034;-6.254;-2.922;-9.007;-2.549;-0.44;-1.064;-3.303;0.683;0.341;-0.47;-8.7;-1.9;30.5;57.25;7268;2018-04-16 23:33:03:662
-3.619;-10.086;-5.974;-2.922;-9.007;-2.549;-0.44;-1.064;-3.303;0.683;0.341;-0.47;-8.6;-1.9;30.5;57.25;7278;2018-04-16 23:33:03:672
-4.073;-9.954;-4.612;-2.857;-9.076;-2.374;-1.215;-0.878;-2.238;0.839;-0.481;-0.516;-8.6;-1.9;30.5;57.25;7288;2018-04-16 23:33:03:682
-4.073;-9.954;-4.612;-2.857;-9.076;-2.374;-1.215;-0.878;-2.238;0.693;-1.024;-0.475;-8.5;-1.8;30.6;57.25;7298;2018-04-16 23:33:03:692
-3.909;-8.485;-1.876;-2.848;-9.122;-2.203;-1.016;0.835;0.884;0.546;-1.272;-0.409;-8.4;-1.8;30.6;57.25;7308;2018-04-16 23:33:03:702
-3.909;-8.485;-1.876;-2.848;-9.122;-2.203;-1.016;0.835;0.884;0.297;-1.261;-0.296;-8.4;-1.8;30.6;57.25;7318;2018-04-16 23:33:03:712
-3.565;-8.147;0.712;-2.847;-9.149;-2.087;-0.791;0.658;2.743;0.194;-0.979;-0.265;-8.2;-1.6;30.6;57.25;7327;2018-04-16 23:33:03:721
-4.598;-10.017;-1.257;-2.847;-9.149;-2.087;-0.791;0.658;2.743;0.194;-0.979;-0.265;-8.2;-1.6;30.6;57.25;7338;2018-04-16 23:33:03:732
-5.054;-11.264;-3.868;-2.849;-9.162;-2.027;-2.206;-2.101;-1.841;0.111;-0.749;-0.177;-8.0;-1.4;30.6;57.25;7348;2018-04-16 23:33:03:742
-5.054;-11.264;-3.868;-2.849;-9.162;-2.027;-2.206;-2.101;-1.841;-0.062;-0.834;-0.068;-8.0;-1.4;30.6;57.25;7358;2018-04-16 23:33:03:752
-4.481;-12.78;-8.193;-2.849;-9.162;-2.027;-2.206;-2.101;-1.841;-0.297;-1.053;-0.039;-7.8;-1.2;30.5;57.25;7368;2018-04-16 23:33:03:762
-2.757;-12.237;-7.821;-2.883;-9.152;-2.025;-1.247;-3.771;-7.143;-0.756;-0.92;-0.094;-7.8;-1.2;30.5;57.25;7378;2018-04-16 23:33:03:772
-2.757;-12.237;-7.821;-2.867;-9.125;-2.162;0.905;-1.042;0.615;-0.756;-0.92;-0.094;-7.6;-0.9;30.5;57.25;7388;2018-04-16 23:33:03:782
-1.671;-8.276;1.851;-2.867;-9.125;-2.162;0.905;-1.042;0.615;-0.819;0.899;-0.209;-7.6;-0.9;30.5;57.25;7398;2018-04-16 23:33:03:792
-1.671;-8.276;1.851;-2.867;-9.125;-2.162;0.905;-1.042;0.615;-0.329;1.842;-0.293;-7.3;-0.7;30.5;57.25;7408;2018-04-16 23:33:03:802
-0.956;-3.795;5.061;-2.729;-9.131;-2.312;1.773;5.336;7.373;-0.031;1.982;-0.4;-7.1;-0.6;30.5;57.25;7417;2018-04-16 23:33:03:811
-4.489;-4.033;4.654;-2.537;-9.201;-2.252;-2.843;4.492;5.945;0.728;1.409;-0.732;-7.1;-0.6;30.5;56.72;7428;2018-04-16 23:33:03:822
-6.39;-6.073;1.584;-2.537;-9.201;-2.252;-2.843;4.492;5.945;1.003;0.621;-0.611;-6.9;-0.4;30.6;56.72;7438;2018-04-16 23:33:03:832
-7.031;-7.377;0.742;-2.451;-9.265;-2.08;-4.58;1.888;2.822;0.942;0.206;-0.375;-6.9;-0.4;30.6;56.72;7448;2018-04-16 23:33:03:842
-7.031;-7.377;0.742;-2.451;-9.265;-2.08;-4.58;1.888;2.822;0.942;0.206;-0.375;-6.8;-0.2;30.6;56.72;7457;2018-04-16 23:33:03:851
-6.942;-9.131;-0.127;-2.465;-9.291;-1.941;-4.35;-0.164;1.549;0.753;0.027;0.068;-6.8;-0.2;30.6;56.72;7468;2018-04-16 23:33:03:862
-6.225;-9.934;-0.572;-2.465;-9.291;-1.941;-4.35;-0.164;1.549;0.617;0.02;0.329;-6.7;-0.1;30.6;56.72;7478;2018-04-16 23:33:03:872
-5.697;-9.946;-0.651;-2.557;-9.283;-1.858;-3.14;-0.662;1.207;0.463;0.015;0.514;-6.7;0.0;30.7;56.72;7487;2018-04-16 23:33:03:881
-5.697;-9.946;-0.651;-2.557;-9.283;-1.858;-3.14;-0.662;1.207;0.274;0.013;0.589;-6.7;0.0;30.7;56.72;7498;2018-04-16 23:33:03:892
-5.028;-9.322;-0.421;-2.671;-9.26;-1.814;-2.357;-0.062;1.392;0.183;-0.06;0.605;-6.7;0.0;30.7;56.72;7508;2018-04-16 23:33:03:902
-5.028;-9.322;-0.421;-2.671;-9.26;-1.814;-2.357;-0.062;1.392;0.183;-0.06;0.605;-6.7;0.2;30.8;56.72;7517;2018-04-16 23:33:03:911
-4.338;-8.984;-0.86;-2.817;-9.227;-1.761;-1.375;0.306;0.824;0.17;-0.362;0.709;-6.7;0.2;30.8;56.72;7527;2018-04-16 23:33:03:921
-3.937;-8.917;-0.587;-2.817;-9.227;-1.761;-1.375;0.306;0.824;0.275;-0.771;0.772;-6.7;0.5;30.9;56.72;7538;2018-04-16 23:33:03:932
-3.84;-9.175;-0.041;-3.003;-9.193;-1.624;-0.837;0.019;1.583;0.428;-1.19;0.795;-6.7;0.5;30.9;56.72;7548;2018-04-16 23:33:03:942
-3.84;-9.175;-0.041;-3.003;-9.193;-1.624;-0.837;0.019;1.583;0.428;-1.19;0.795;-6.7;0.7;30.8;56.72;7558;2018-04-16 23:33:03:952
-3.743;-9.616;0.482;-3.003;-9.193;-1.624;-0.837;0.019;1.583;0.613;-1.569;0.738;-6.7;0.9;30.9;56.72;7568;2018-04-16 23:33:03:962
-3.743;-9.616;0.482;-3.186;-9.167;-1.41;-0.542;-0.617;2.04;0.531;-1.362;0.663;-6.7;0.9;30.9;56.72;7578;2018-04-16 23:33:03:972
-3.461;-10.041;1.003;-3.186;-9.167;-1.41;-0.542;-0.617;2.04;0.531;-1.362;0.663;-6.6;1.2;30.8;56.72;7587;2018-04-16 23:33:03:981
-3.272;-10.136;1.049;-3.332;-9.139;-1.244;-0.09;-0.928;2.285;0.409;-1.086;0.595;-6.5;1.3;30.7;56.72;7597;2018-04-16 23:33:03:991
-2.622;-10.179;0.834;-3.448;-9.112;-1.12;0.827;-1.067;1.955;0.365;-0.743;0.55;-6.5;1.3;30.7;56.72;7607;2018-04-16 23:33:04:001
-2.622;-10.179;0.834;-3.448;-9.112;-1.12;0.827;-1.067;1.955;0.483;-0.621;0.524;-6.4;1.6;30.7;56.72;7618;2018-04-16 23:33:04:012
-1.501;-9.813;0.522;-3.511;-9.106;-0.958;2.256;-0.656;1.374;0.651;-0.496;0.402;-6.2;1.8;30.8;56.72;7629;2018-04-16 23:33:04:023
-1.167;-9.777;0.383;-3.511;-9.106;-0.958;2.256;-0.656;1.374;0.789;-0.345;0.199;-6.2;1.8;30.8;56.72;7637;2018-04-16 23:33:04:031
-1.167;-9.777;0.383;-3.498;-9.128;-0.784;2.138;-0.962;1.377;0.863;-0.162;0.006;-6.2;2.0;30.8;56.72;7648;2018-04-16 23:33:04:042
-1.319;-10.064;0.711;-3.498;-9.128;-0.784;2.138;-0.962;1.377;0.876;0.237;-0.101;-6.2;2.0;30.8;56.72;7658;2018-04-16 23:33:04:052
-1.319;-9.579;0.674;-3.45;-9.157;-0.643;2.224;-0.422;1.317;0.845;0.503;-0.133;-6.1;2.2;30.8;56.72;7667;2018-04-16 23:33:04:061
-1.226;-9.579;0.674;-3.45;-9.157;-0.643;2.224;-0.422;1.317;0.845;0.503;-0.133;-6.1;2.2;30.8;56.72;7677;2018-04-16 23:33:04:071
-1.262;-9.203;0.457;-3.393;-9.185;-0.545;2.131;-0.019;1.002;0.756;0.773;-0.189;-6.0;2.8;30.8;56.72;7687;2018-04-16 23:33:04:081
-1.262;-9.203;0.457;-3.393;-9.185;-0.545;2.131;-0.019;1.002;0.688;0.716;-0.202;-6.0;2.8;30.8;56.72;7700;2018-04-16 23:33:04:094
-1.998;-9.167;-0.328;-3.393;-9.185;-0.545;2.131;-0.019;1.002;0.688;0.716;-0.202;-6.0;2.9;30.7;56.72;7708;2018-04-16 23:33:04:102
-1.998;-9.167;-0.328;-3.347;-9.206;-0.468;1.349;0.039;0.14;0.489;0.089;-0.064;-6.0;2.9;30.7;56.72;7718;2018-04-16 23:33:04:112
-1.861;-8.407;-1.106;-3.337;-9.214;-0.372;1.476;0.807;-0.734;0.432;-0.439;-0.042;-6.0;2.9;30.7;56.72;7727;2018-04-16 23:33:04:121
-1.861;-8.407;-1.106;-3.337;-9.214;-0.372;1.476;0.807;-0.734;0.432;-0.439;-0.042;-5.9;3.6;30.6;56.72;7737;2018-04-16 23:33:04:131
-2.164;-8.565;-0.655;-3.33;-9.222;-0.202;1.101;0.596;-0.358;0.473;-1.249;-0.07;-5.9;3.6;30.6;56.72;7748;2018-04-16 23:33:04:142
-2.482;-8.789;-0.314;-3.33;-9.222;-0.202;1.101;0.596;-0.358;0.507;-1.589;-0.075;-5.7;4.0;30.6;56.01;7757;2018-04-16 23:33:04:151
-2.654;-8.969;-0.006;-3.316;-9.229;-0.005;0.662;0.26;-0.001;0.473;-1.725;-0.077;-5.7;4.0;30.6;56.01;7768;2018-04-16 23:33:04:162
-2.654;-8.969;-0.006;-3.316;-9.229;-0.005;0.662;0.26;-0.001;0.363;-1.675;-0.082;-5.4;4.4;30.7;56.01;7778;2018-04-16 23:33:04:172
-2.796;-8.929;0.625;-3.294;-9.236;0.14;0.447;0.302;0.593;0.246;-1.481;-0.09;-5.4;4.4;30.7;56.01;7787;2018-04-16 23:33:04:181
-2.99;-8.906;0.913;-3.294;-9.236;0.14;0.447;0.302;0.593;0.18;-1.005;-0.122;-5.2;4.7;30.6;56.01;7797;2018-04-16 23:33:04:191
-3.112;-8.82;0.991;-3.265;-9.244;0.232;0.153;0.424;0.759;0.183;-0.626;-0.14;-5.2;4.7;30.6;56.01;7808;2018-04-16 23:33:04:202
-3.112;-8.82;0.991;-3.265;-9.244;0.232;0.153;0.424;0.759;0.287;0.104;-0.172;-4.9;5.1;30.6;56.01;7818;2018-04-16 23:33:04:212
-3.145;-8.871;1.177;-3.233;-9.254;0.29;0.089;0.383;0.886;0.287;0.104;-0.172;-4.9;5.1;30.6;56.01;7827;2018-04-16 23:33:04:221
-3.145;-8.871;1.177;-3.233;-9.254;0.29;0.089;0.383;0.886;0.389;0.396;-0.191;-4.6;5.4;30.5;56.01;7838;2018-04-16 23:33:04:232
-3.072;-8.964;1.304;-3.2;-9.263;0.352;0.221;0.311;0.949;0.56;0.738;-0.191;-4.6;5.4;30.5;56.01;7848;2018-04-16 23:33:04:242
-2.647;-8.823;1.176;-3.2;-9.263;0.352;0.221;0.311;0.949;0.56;0.738;-0.191;-4.2;5.8;30.4;56.01;7857;2018-04-16 23:33:04:251
-2.647;-8.823;1.176;-3.168;-9.271;0.42;0.668;0.507;0.663;0.683;1.002;-0.198;-4.2;5.8;30.4;56.01;7868;2018-04-16 23:33:04:262
-2.611;-8.865;1.047;-3.168;-9.271;0.42;0.668;0.507;0.663;0.768;1.163;-0.203;-4.0;6.1;30.5;56.01;7878;2018-04-16 23:33:04:272
-2.611;-8.865;1.047;-3.168;-9.271;0.42;0.668;0.507;0.663;0.843;1.224;-0.147;-4.0;6.1;30.5;56.01;7888;2018-04-16 23:33:04:282
-3.162;-9.23;0.971;-3.146;-9.275;0.498;-0.016;0.045;0.473;0.843;1.224;-0.147;-3.9;6.5;30.4;56.01;7897;2018-04-16 23:33:04:291
-3.525;-9.33;0.579;-3.142;-9.27;0.606;-0.383;-0.06;-0.026;0.983;1.246;-0.103;-3.9;6.5;30.4;56.01;7908;2018-04-16 23:33:04:302
-3.525;-9.33;0.579;-3.142;-9.27;0.606;-0.383;-0.06;-0.026;1.115;1.158;-0.108;-4.0;6.8;30.4;56.01;7918;2018-04-16 23:33:04:312
-3.82;-9.51;0.251;-3.141;-9.265;0.675;-0.679;-0.244;-0.424;1.39;0.822;-0.065;-4.0;6.8;30.4;56.01;7927;2018-04-16 23:33:04:321
-3.746;-9.47;-0.238;-3.146;-9.245;0.898;-0.534;-0.291;-1.215;1.39;0.822;-0.065;-4.0;7.2;30.3;56.01;7938;2018-04-16 23:33:04:332
-3.746;-9.47;-0.238;-3.146;-9.245;0.898;-0.534;-0.291;-1.215;1.619;0.368;-0.009;-4.0;7.2;30.3;56.01;7947;2018-04-16 23:33:04:341
-3.418;-9.767;-0.643;-3.151;-9.211;1.187;0.084;-0.666;-2.281;1.657;0.097;0.016;-4.2;7.6;30.4;56.01;7958;2018-04-16 23:33:04:352
-2.89;-9.951;-1.371;-3.151;-9.211;1.187;0.084;-0.666;-2.281;1.536;-0.347;0.027;-4.2;7.6;30.4;56.01;7968;2018-04-16 23:33:04:362
-2.393;-9.834;-1.766;-3.143;-9.171;1.48;0.75;-0.663;-3.245;1.536;-0.347;0.027;-4.3;8.0;30.2;56.01;7980;2018-04-16 23:33:04:374
-2.393;-9.834;-1.766;-3.143;-9.171;1.48;0.75;-0.663;-3.245;1.349;-1.068;0.083;-4.3;8.0;30.2;56.01;7988;2018-04-16 23:33:04:382
-1.562;-9.404;-1.899;-3.108;-9.133;1.76;1.653;-0.216;-3.649;1.349;-1.068;0.083;-4.4;8.4;30.1;56.01;7998;2018-04-16 23:33:04:392
-1.33;-9.331;-1.775;-3.108;-9.133;1.76;1.653;-0.216;-3.649;1.213;-1.449;0.055;-4.4;8.4;30.1;56.01;8008;2018-04-16 23:33:04:402
-1.33;-9.331;-1.775;-3.047;-9.102;2.012;1.643;-0.494;-3.631;1.092;-1.469;0.024;-4.4;8.8;30.0;56.01;8018;2018-04-16 23:33:04:412
-1.532;-9.791;-1.499;-3.02;-9.089;2.108;1.364;-0.865;-3.447;0.891;-1.21;-0.009;-4.4;8.8;30.0;56.01;8027;2018-04-16 23:33:04:421
-2.043;-10.663;-0.637;-3.02;-9.089;2.108;1.364;-0.865;-3.447;0.584;-0.679;-0.035;-4.4;9.3;29.7;56.01;8038;2018-04-16 23:33:04:432
-2.011;-11.23;0.037;-3.014;-9.084;2.138;1.003;-2.146;-2.101;0.009;0.371;-0.042;-4.4;9.3;29.7;56.01;8048;2018-04-16 23:33:04:442
-2.011;-11.23;0.037;-3.014;-9.084;2.138;1.003;-2.146;-2.101;0.009;0.371;-0.042;-4.4;10.5;28.9;56.01;8058;2018-04-16 23:33:04:452
-1.935;-11.626;0.929;-3.014;-9.084;2.138;1.003;-2.146;-2.101;-0.32;1.103;-0.082;-4.4;10.5;28.9;56.01;8067;2018-04-16 23:33:04:461
-1.844;-11.56;0.925;-3.044;-9.102;2.016;1.134;-2.509;-1.014;-0.211;1.332;-0.145;-4.5;10.8;28.9;56.01;8078;2018-04-16 23:33:04:472
-1.844;-11.56;0.925;-3.044;-9.102;2.016;1.134;-2.509;-1.014;-0.211;1.332;-0.145;-4.5;10.8;28.9;53.78;8087;2018-04-16 23:33:04:481
-1.53;-11.574;0.567;-3.064;-9.116;1.918;1.417;-2.419;-1.271;-0.034;1.228;-0.176;-4.8;11.3;28.8;53.78;8097;2018-04-16 23:33:04:491
-1.614;-11.696;0.636;-3.051;-9.13;1.871;1.437;-2.565;-1.236;0.01;0.728;-0.272;-4.8;11.3;28.8;53.78;8108;2018-04-16 23:33:04:502
-1.614;-11.696;0.636;-3.051;-9.13;1.871;1.437;-2.565;-1.236;-0.173;0.36;-0.313;-5.0;11.4;28.7;53.78;8118;2018-04-16 23:33:04:512
-1.657;-11.495;0.558;-2.999;-9.159;1.812;1.333;-2.274;-1.277;-0.309;0.088;-0.326;-5.0;11.4;28.7;53.78;8127;2018-04-16 23:33:04:521
-1.771;-11.171;0.472;-2.999;-9.159;1.812;1.333;-2.274;-1.277;-0.309;0.088;-0.326;-5.1;11.7;28.6;53.78;8138;2018-04-16 23:33:04:532
-1.771;-11.171;0.472;-2.999;-9.159;1.812;1.333;-2.274;-1.277;-0.462;-0.389;-0.396;-5.1;11.7;28.6;53.78;8147;2018-04-16 23:33:04:541
-2.255;-11.004;0.426;-2.912;-9.199;1.753;0.657;-1.805;-1.326;-0.458;-1.141;-0.464;-5.4;12.0;28.5;53.78;8161;2018-04-16 23:33:04:555
-3.907;-10.297;-0.686;-2.786;-9.241;1.734;-1.121;-1.056;-2.42;-0.458;-1.141;-0.464;-5.4;12.0;28.5;53.78;8167;2018-04-16 23:33:04:561
-3.907;-10.297;-0.686;-2.786;-9.241;1.734;-1.121;-1.056;-2.42;-0.392;-1.719;-0.459;-5.6;12.3;28.2;53.78;8178;2018-04-16 23:33:04:572
-5.885;-9.801;-2.319;-2.786;-9.241;1.734;-1.121;-1.056;-2.42;-0.392;-1.719;-0.459;-5.6;12.3;28.2;53.78;8188;2018-04-16 23:33:04:582
-7.032;-9.784;-2.956;-2.646;-9.28;1.747;-3.841;-0.491;-4.487;-0.496;-1.833;-0.395;-5.8;12.7;28.0;53.78;8197;2018-04-16 23:33:04:591
-7.032;-9.784;-2.956;-2.646;-9.28;1.747;-3.841;-0.491;-4.487;-1.262;-0.962;-0.068;-5.8;12.7;28.0;53.78;8208;2018-04-16 23:33:04:602
-6.671;-9.541;-1.529;-2.608;-9.326;1.546;-4.064;-0.215;-3.075;-1.654;-0.407;0.076;-5.9;12.9;28.0;53.78;8218;2018-04-16 23:33:04:612
-4.711;-9.159;1.545;-2.687;-9.379;0.995;-2.023;0.22;0.55;-2.656;1.137;0.266;-5.9;12.9;28.0;53.78;8228;2018-04-16 23:33:04:622
-4.711;-9.159;1.545;-2.687;-9.379;0.995;-2.023;0.22;0.55;-2.95;1.71;0.208;-5.9;13.1;27.8;53.78;8237;2018-04-16 23:33:04:631
-4.451;-9.693;3.217;-2.75;-9.406;0.365;-1.494;-0.356;3.133;-2.822;1.598;0.216;-5.9;13.1;27.8;53.78;8247;2018-04-16 23:33:04:641
-3.743;-9.643;3.772;-2.75;-9.406;0.365;-1.494;-0.356;3.133;-2.822;1.598;0.216;-5.9;13.2;27.8;53.78;8258;2018-04-16 23:33:04:652
-3.743;-9.643;3.772;-2.787;-9.401;-0.171;-0.614;-0.036;3.544;-2.485;1.205;0.194;-5.9;13.2;27.8;53.78;8267;2018-04-16 23:33:04:661
-3.334;-9.374;3.097;-2.787;-9.401;-0.171;-0.614;-0.036;3.544;-2.286;0.958;0.099;-6.0;13.1;27.9;53.78;8278;2018-04-16 23:33:04:672
-3.334;-9.374;3.097;-2.787;-9.401;-0.171;-0.614;-0.036;3.544;-2.115;0.667;0.022;-6.0;13.1;27.9;53.78;8288;2018-04-16 23:33:04:682
-4.031;-9.711;3.739;-2.788;-9.383;-0.592;-1.243;-0.328;4.33;-2.029;0.553;0.017;-6.1;12.9;28.1;53.78;8298;2018-04-16 23:33:04:692
-4.718;-10.477;5.244;-2.802;-9.348;-0.965;-1.916;-1.129;6.21;-1.773;0.735;0.14;-6.1;12.9;28.1;53.78;8308;2018-04-16 23:33:04:702
-4.718;-10.477;5.244;-2.802;-9.348;-0.965;-1.916;-1.129;6.21;-1.495;1.516;0.242;-6.3;12.5;28.4;53.78;8317;2018-04-16 23:33:04:711
-4.678;-10.386;4.606;-2.804;-9.303;-1.33;-1.627;-0.84;5.178;-1.329;2.116;0.236;-6.3;12.5;28.4;53.78;8328;2018-04-16 23:33:04:722
-4.43;-9.999;2.028;-2.804;-9.303;-1.33;-1.627;-0.84;5.178;-1.329;2.116;0.236;-6.9;11.3;29.2;53.78;8337;2018-04-16 23:33:04:731
-4.43;-9.999;2.028;-2.804;-9.303;-1.33;-1.627;-0.84;5.178;-1.196;2.407;0.105;-6.9;11.3;29.2;53.78;8348;2018-04-16 23:33:04:742
-3.709;-10.29;-2.108;-2.754;-9.26;-1.683;-0.954;-1.03;-0.425;-1.185;2.32;0.089;-7.9;10.1;29.7;53.78;8358;2018-04-16 23:33:04:752
-2.565;-10.661;-4.937;-2.754;-9.26;-1.683;-0.954;-1.03;-0.425;-0.897;0.238;0.274;-8.8;9.1;30.6;53.78;8367;2018-04-16 23:33:04:761
-2.565;-10.661;-4.937;-2.763;-9.213;-1.911;0.57;-1.12;-2.384;-0.744;-0.467;0.314;-8.8;9.1;30.6;53.78;8378;2018-04-16 23:33:04:772
-1.399;-8.965;-0.651;-2.816;-9.174;-2.018;1.408;0.367;2.061;-0.662;-0.296;0.2;-9.4;8.0;30.6;53.78;8387;2018-04-16 23:33:04:781
-1.847;-8.918;0.698;-2.816;-9.174;-2.018;1.408;0.367;2.061;-0.662;-0.296;0.2;-9.4;8.0;30.6;54.46;8397;2018-04-16 23:33:04:791
-1.847;-8.918;0.698;-2.73;-9.162;-2.184;0.513;0.216;3.611;-0.58;1.429;-0.117;-9.5;7.2;30.5;54.46;8408;2018-04-16 23:33:04:802
-2.619;-8.807;1.543;-2.73;-9.162;-2.184;0.513;0.216;3.611;-0.448;2.111;-0.232;-9.5;7.2;30.5;54.46;8417;2018-04-16 23:33:04:811
-3.105;-8.278;0.802;-2.566;-9.171;-2.339;-0.54;0.893;3.141;-0.225;2.453;-0.299;-10.5;6.2;29.2;54.46;8428;2018-04-16 23:33:04:822
-3.105;-8.278;0.802;-2.566;-9.171;-2.339;-0.54;0.893;3.141;-0.018;2.42;-0.348;-10.5;6.2;29.2;54.46;8437;2018-04-16 23:33:04:831
-3.692;-8.258;0.761;-2.408;-9.201;-2.389;-1.316;0.954;2.944;0.194;1.952;-0.387;-11.2;5.6;30.9;54.46;8447;2018-04-16 23:33:04:841
-3.543;-7.983;-0.473;-2.408;-9.201;-2.389;-1.316;0.954;2.944;0.387;1.395;-0.387;-12.4;5.9;30.4;54.46;8458;2018-04-16 23:33:04:852
-3.543;-7.983;-0.473;-2.408;-9.201;-2.389;-1.316;0.954;2.944;0.387;1.395;-0.387;-12.4;5.9;30.4;54.46;8467;2018-04-16 23:33:04:861
-3.48;-7.773;-1.447;-2.299;-9.236;-2.362;-1.181;1.463;0.915;0.28;0.52;-0.38;-12.4;5.9;30.4;54.46;8478;2018-04-16 23:33:04:872
-3.567;-7.829;-1.489;-2.278;-9.239;-2.369;-1.319;1.391;0.947;-0.082;0.007;-0.263;-12.4;5.9;30.4;54.46;8487;2018-04-16 23:33:04:881
-3.901;-7.797;-1.314;-2.301;-9.206;-2.475;-1.601;1.409;1.16;-0.688;-0.367;0.022;-12.4;5.7;30.6;54.46;8498;2018-04-16 23:33:04:892
-4.043;-7.392;-0.132;-2.339;-9.167;-2.582;-1.703;1.775;2.45;-1.17;-0.409;0.269;-12.4;5.7;30.6;54.46;8508;2018-04-16 23:33:04:902
-4.043;-7.392;-0.132;-2.339;-9.167;-2.582;-1.703;1.775;2.45;-1.17;-0.409;0.269;-12.8;5.3;30.3;54.46;8518;2018-04-16 23:33:04:912
-4.043;-7.392;-0.132;-2.339;-9.167;-2.582;-1.703;1.775;2.45;-1.234;-0.1;0.346;-12.8;5.3;30.3;54.46;8527;2018-04-16 23:33:04:921
-4.499;-6.351;-0.351;-2.403;-9.086;-2.799;-2.096;2.736;2.448;-1.07;0.148;0.358;-12.6;5.0;30.9;54.46;8537;2018-04-16 23:33:04:931
-4.702;-5.119;-0.454;-2.463;-9.022;-2.951;-2.067;4.057;2.569;-0.695;0.017;0.341;-12.6;4.8;30.5;54.46;8548;2018-04-16 23:33:04:942
-4.702;-5.119;-0.454;-2.463;-9.022;-2.951;-2.067;4.057;2.569;-0.695;0.017;0.341;-12.6;4.8;30.5;54.46;8558;2018-04-16 23:33:04:952
-3.858;-4.867;-0.101;-2.494;-9.003;-2.982;-1.365;4.136;2.881;-0.413;-0.116;0.336;-12.6;4.8;30.6;54.46;8567;2018-04-16 23:33:04:961
-2.44;-5.301;-0.139;-2.56;-8.985;-2.98;0.12;3.684;2.841;-0.032;-0.167;0.312;-12.6;4.8;30.6;54.46;8577;2018-04-16 23:33:04:971
-1.745;-5.847;-0.798;-2.56;-8.985;-2.98;0.12;3.684;2.841;0.276;-0.177;0.285;-12.6;4.6;30.8;54.46;8590;2018-04-16 23:33:04:984
-1.745;-5.847;-0.798;-2.624;-8.991;-2.907;1.016;2.928;1.862;0.276;-0.177;0.285;-12.6;4.6;30.8;54.46;8597;2018-04-16 23:33:04:991
-1.766;-6.561;-1.658;-2.669;-8.997;-2.845;0.903;2.436;1.187;0.484;-0.301;0.309;-13.1;4.3;30.8;54.46;8608;2018-04-16 23:33:05:002
-1.766;-6.561;-1.658;-2.669;-8.997;-2.845;0.903;2.436;1.187;0.539;-0.501;0.376;-13.3;4.2;30.8;54.46;8618;2018-04-16 23:33:05:012
-1.27;-8.149;-2.434;-2.787;-9.002;-2.714;1.528;0.397;-0.026;0.467;-0.915;0.435;-13.3;4.2;30.8;54.46;8628;2018-04-16 23:33:05:022
-1.124;-9.267;-3.292;-2.787;-9.002;-2.714;1.528;0.397;-0.026;0.467;-0.915;0.435;-13.6;4.0;30.8;54.46;8638;2018-04-16 23:33:05:032
-0.838;-10.042;-4.181;-2.915;-8.994;-2.603;2.077;-1.048;-1.578;0.153;-1.329;0.338;-13.7;3.9;30.8;54.46;8648;2018-04-16 23:33:05:042
-0.838;-10.042;-4.181;-2.915;-8.994;-2.603;2.077;-1.048;-1.578;0.153;-1.329;0.338;-13.7;3.9;30.8;54.46;8657;2018-04-16 23:33:05:051
-0.571;-11.292;-5.669;-3.028;-8.981;-2.518;2.571;-2.494;-3.578;-0.128;-1.751;0.104;-13.9;3.9;30.8;54.46;8667;2018-04-16 23:33:05:061
-0.269;-11.775;-6.995;-3.028;-8.981;-2.518;2.571;-2.494;-3.578;-0.226;-1.905;0.053;-13.9;3.9;30.8;54.46;8678;2018-04-16 23:33:05:072
-0.18;-11.922;-7.763;-3.12;-8.963;-2.47;2.94;-2.959;-5.293;-0.417;-1.797;-0.011;-13.9;3.8;30.8;54.46;8688;2018-04-16 23:33:05:082
-0.18;-11.922;-7.763;-3.12;-8.963;-2.47;2.94;-2.959;-5.293;-0.512;-1.262;-0.15;-13.9;3.9;30.8;54.46;8700;2018-04-16 23:33:05:094
-0.593;-11.595;-7.556;-3.151;-8.948;-2.484;2.559;-2.647;-5.072;-0.512;-1.262;-0.15;-13.9;3.9;30.8;54.46;8708;2018-04-16 23:33:05:102
-0.593;-11.595;-7.556;-3.151;-8.948;-2.484;2.559;-2.647;-5.072;-0.453;-0.704;-0.287;-14.0;3.8;30.9;54.46;8718;2018-04-16 23:33:05:112
-1.208;-10.728;-6.464;-3.078;-8.959;-2.537;1.682;-1.508;-3.689;-0.314;-0.033;-0.412;-13.9;3.7;31.1;57.6;8727;2018-04-16 23:33:05:121
-1.938;-9.676;-5.465;-3.078;-8.959;-2.537;1.682;-1.508;-3.689;0.01;0.861;-0.519;-13.9;3.7;31.1;57.6;8738;2018-04-16 23:33:05:132
-1.938;-9.676;-5.465;-2.931;-8.999;-2.568;0.557;-0.209;-2.242;0.329;1.203;-0.524;-13.8;3.8;31.2;57.6;8748;2018-04-16 23:33:05:142
-2.47;-9.086;-4.639;-2.931;-8.999;-2.568;0.557;-0.209;-2.242;0.666;1.201;-0.518;-13.7;3.7;31.3;57.6;8758;2018-04-16 23:33:05:152
-2.47;-9.086;-4.639;-2.931;-8.999;-2.568;0.557;-0.209;-2.242;0.666;1.201;-0.518;-13.7;3.7;31.3;57.6;8767;2018-04-16 23:33:05:161
-3.517;-9.312;-4.864;-2.793;-9.066;-2.484;-0.724;-0.246;-2.38;0.863;0.718;-0.484;-13.5;3.7;31.5;57.6;8778;2018-04-16 23:33:05:172
-4.433;-7.666;-2.707;-2.767;-9.117;-2.324;-1.666;1.45;-0.383;0.762;-0.487;-0.329;-13.5;3.7;31.5;57.6;8787;2018-04-16 23:33:05:181
-4.433;-7.666;-2.707;-2.767;-9.117;-2.324;-1.666;1.45;-0.383;0.485;-1.239;-0.232;-13.3;3.7;31.7;57.6;8797;2018-04-16 23:33:05:191
-4.715;-6.305;-1.103;-2.778;-9.148;-2.183;-2.439;2.569;1.437;0.286;-1.366;-0.288;-13.3;3.7;31.7;57.6;8808;2018-04-16 23:33:05:202
-6.072;-7.992;-0.406;-2.778;-9.148;-2.183;-2.439;2.569;1.437;0.286;-1.366;-0.288;-13.1;3.8;31.9;57.6;8817;2018-04-16 23:33:05:211
-6.072;-7.992;-0.406;-2.808;-9.157;-2.106;-3.053;-0.566;2.039;-0.02;-1.251;-0.21;-13.1;3.8;31.9;57.6;8828;2018-04-16 23:33:05:222
-5.442;-11.012;-0.127;-2.808;-9.157;-2.106;-3.053;-0.566;2.039;-0.081;-1.214;-0.067;-12.9;3.9;32.0;57.6;8837;2018-04-16 23:33:05:231
-4.955;-14.633;-3.375;-2.829;-9.157;-2.078;-2.45;-2.8;1.484;-0.049;-1.238;-0.031;-12.9;3.9;32.0;57.6;8847;2018-04-16 23:33:05:241
-4.955;-14.633;-3.375;-2.875;-9.16;-1.998;-1.473;-7.579;-5.483;0.044;-1.128;-0.026;-12.6;4.0;32.2;57.6;8860;2018-04-16 23:33:05:254
-3.6;-17.227;-7.956;-2.875;-9.16;-1.998;-1.473;-7.579;-5.483;-0.27;-0.442;-0.09;-12.4;4.0;32.4;57.6;8868;2018-04-16 23:33:05:262
-3.6;-17.227;-7.956;-2.847;-9.154;-2.068;-0.444;-4.207;1.184;-0.27;-0.442;-0.09;-12.4;4.0;32.4;57.6;8878;2018-04-16 23:33:05:272
-2.856;-10.983;1.155;-2.847;-9.154;-2.068;-0.444;-4.207;1.184;-0.376;1.272;-0.205;-12.1;4.2;32.7;57.6;8887;2018-04-16 23:33:05:281
-1.85;-4.936;4.386;-2.782;-9.16;-2.125;0.441;0.46;4.786;-0.039;1.982;-0.287;-11.8;4.3;32.8;57.6;8897;2018-04-16 23:33:05:291
-2.547;-2.752;5.09;-2.593;-9.202;-2.184;0.045;6.45;7.274;0.415;2.096;-0.652;-11.8;4.3;32.8;57.6;8908;2018-04-16 23:33:05:302
-4.183;-3.08;3.323;-2.486;-9.233;-2.177;-1.697;6.153;5.5;0.622;1.968;-0.823;-11.7;4.3;32.9;57.6;8918;2018-04-16 23:33:05:312
-4.183;-3.08;3.323;-2.486;-9.233;-2.177;-1.697;6.153;5.5;0.622;1.968;-0.823;-11.7;4.3;32.9;57.6;8927;2018-04-16 23:33:05:321
-6.183;-5.351;0.772;-2.296;-9.297;-2.111;-3.887;3.946;2.883;0.756;1.271;-0.556;-11.6;4.3;33.1;57.6;8938;2018-04-16 23:33:05:332
-6.183;-5.351;0.772;-2.296;-9.297;-2.111;-3.887;3.946;2.883;0.751;0.869;-0.226;-11.6;4.3;33.1;57.6;8947;2018-04-16 23:33:05:341
-6.693;-7.147;0.725;-2.289;-9.326;-1.992;-4.511;1.653;2.642;0.735;0.655;0.088;-11.6;4.4;33.1;57.6;8958;2018-04-16 23:33:05:352
-6.856;-8.847;0.431;-2.289;-9.326;-1.992;-4.511;1.653;2.642;0.674;0.602;0.364;-11.6;4.4;33.1;57.6;8967;2018-04-16 23:33:05:361
-6.856;-8.847;0.431;-2.369;-9.321;-1.919;-4.405;-0.477;2.093;0.53;0.585;0.567;-11.7;4.4;33.1;57.6;8978;2018-04-16 23:33:05:372
-6.51;-10.216;0.068;-2.369;-9.321;-1.919;-4.405;-0.477;2.093;0.53;0.585;0.567;-11.7;4.4;33.1;57.6;8988;2018-04-16 23:33:05:382
-6.093;-10.297;0.225;-2.434;-9.304;-1.917;-3.912;-1.011;2.029;0.175;0.579;0.753;-11.9;4.5;33.1;57.6;8998;2018-04-16 23:33:05:392
-6.093;-10.297;0.225;-2.563;-9.257;-1.979;-3.015;-0.833;2.057;-0.184;0.566;0.803;-11.9;4.5;33.1;57.6;9008;2018-04-16 23:33:05:402
-5.264;-9.863;-0.198;-2.563;-9.257;-1.979;-3.015;-0.833;2.057;-0.413;0.358;0.898;-12.1;4.7;33.0;57.6;9017;2018-04-16 23:33:05:411
-3.766;-9.516;-2.314;-2.744;-9.191;-2.042;-1.022;-0.325;-0.272;-0.312;-0.395;1.023;-12.1;4.7;33.0;57.6;9028;2018-04-16 23:33:05:422
-3.766;-9.516;-2.314;-2.744;-9.191;-2.042;-1.022;-0.325;-0.272;-0.312;-0.395;1.023;-12.3;4.9;32.9;57.6;9037;2018-04-16 23:33:05:431
-2.559;-9.03;-1.165;-3.009;-9.142;-1.88;0.376;0.052;1.164;0.172;-2.237;1.014;-12.3;4.9;32.9;57.6;9048;2018-04-16 23:33:05:442
-2.984;-9.521;0.263;-3.009;-9.142;-1.88;0.376;0.052;1.164;0.291;-2.904;0.798;-12.5;5.1;32.9;55.85;9057;2018-04-16 23:33:05:451
-2.984;-9.521;0.263;-3.242;-9.111;-1.624;0.355;-0.994;2.263;0.268;-3.111;0.663;-12.5;5.1;32.9;55.85;9068;2018-04-16 23:33:05:462
-2.534;-10.39;0.687;-3.242;-9.111;-1.624;0.355;-0.994;2.263;0.297;-3.198;0.702;-12.6;5.2;32.8;55.85;9077;2018-04-16 23:33:05:471
-2.534;-10.39;0.687;-3.242;-9.111;-1.624;0.355;-0.994;2.263;0.297;-3.198;0.702;-12.6;5.2;32.8;55.85;9088;2018-04-16 23:33:05:482
-0.784;-10.416;1.021;-3.463;-9.078;-1.331;2.679;-1.338;2.352;0.52;-3.296;0.744;-12.5;5.5;32.7;55.85;9097;2018-04-16 23:33:05:491
0.624;-10.491;1.524;-3.613;-9.069;-0.932;4.339;-1.407;2.564;1.03;-3.034;0.511;-12.5;5.5;32.7;55.85;9108;2018-04-16 23:33:05:502
0.731;-10.159;1.505;-3.613;-9.069;-0.932;4.339;-1.407;2.564;1.288;-1.576;0.136;-12.3;5.7;32.7;55.85;9118;2018-04-16 23:33:05:512
0.731;-10.159;1.505;-3.595;-9.101;-0.641;3.981;-0.575;1.598;1.191;-0.237;-0.139;-12.1;5.8;32.7;55.85;9128;2018-04-16 23:33:05:522
-0.122;-9.492;0.67;-3.595;-9.101;-0.641;3.981;-0.575;1.598;1.191;-0.237;-0.139;-12.1;5.8;32.7;55.85;9137;2018-04-16 23:33:05:531
-0.122;-9.492;0.67;-3.595;-9.101;-0.641;3.981;-0.575;1.598;0.88;1.169;-0.513;-11.6;6.2;32.7;55.85;9148;2018-04-16 23:33:05:542
-1.435;-9.412;0.192;-3.471;-9.155;-0.555;2.036;-0.257;0.747;0.817;1.405;-0.557;-11.1;6.7;33.1;55.85;9158;2018-04-16 23:33:05:552
-2.071;-9.046;-0.648;-3.351;-9.202;-0.517;1.28;0.155;-0.13;0.742;1.329;-0.525;-11.1;6.7;33.1;55.85;9167;2018-04-16 23:33:05:561
-2.071;-9.046;-0.648;-3.351;-9.202;-0.517;1.28;0.155;-0.13;0.742;1.329;-0.525;-10.9;7.4;32.6;55.85;9178;2018-04-16 23:33:05:572
-2.764;-8.781;-0.348;-3.26;-9.239;-0.43;0.369;0.407;0.159;0.743;0.745;-0.447;-10.9;7.4;32.6;55.85;9187;2018-04-16 23:33:05:581
-2.992;-8.687;-0.186;-3.26;-9.239;-0.43;0.369;0.407;0.159;0.63;0.227;-0.345;-11.0;8.1;32.4;55.85;9198;2018-04-16 23:33:05:592
-2.902;-8.468;-0.39;-3.201;-9.264;-0.329;0.299;0.795;-0.061;0.524;-0.034;-0.291;-11.0;8.1;32.4;55.85;9207;2018-04-16 23:33:05:601
-2.902;-8.468;-0.39;-3.201;-9.264;-0.329;0.299;0.795;-0.061;0.496;-0.415;-0.255;-10.9;8.6;33.3;55.85;9218;2018-04-16 23:33:05:612
-3.268;-8.771;-0.788;-3.164;-9.28;-0.194;-0.104;0.509;-0.594;0.496;-0.415;-0.255;-10.9;8.5;32.5;55.85;9228;2018-04-16 23:33:05:622
-3.268;-8.771;-0.788;-3.164;-9.28;-0.194;-0.104;0.509;-0.594;0.621;-1.328;-0.155;-10.9;8.5;32.5;55.85;9237;2018-04-16 23:33:05:631
-3.346;-8.984;-0.596;-3.144;-9.289;0.037;-0.324;0.138;-0.392;0.71;-1.668;-0.142;-10.4;9.2;32.2;55.85;9248;2018-04-16 23:33:05:642
-3.589;-9.454;0.098;-3.144;-9.289;0.037;-0.324;0.138;-0.392;0.749;-1.704;-0.11;-10.4;9.2;32.2;55.85;9257;2018-04-16 23:33:05:651
-3.589;-9.454;0.098;-3.125;-9.291;0.269;-0.33;-0.042;0.072;0.685;-1.395;-0.071;-10.0;9.5;32.5;55.85;9268;2018-04-16 23:33:05:662
-3.225;-9.09;0.375;-3.125;-9.291;0.269;-0.33;-0.042;0.072;0.685;-1.395;-0.071;-10.0;9.5;32.5;55.85;9277;2018-04-16 23:33:05:671
-3.225;-9.09;0.375;-3.125;-9.291;0.269;-0.33;-0.042;0.072;0.501;-0.693;-0.049;-9.3;9.9;32.5;55.85;9288;2018-04-16 23:33:05:682
-2.835;-8.855;0.35;-3.112;-9.291;0.401;0.277;0.436;-0.051;0.426;-0.459;-0.048;-9.0;10.1;33.3;55.85;9297;2018-04-16 23:33:05:691
-2.835;-8.855;0.35;-3.112;-9.291;0.401;0.277;0.436;-0.051;0.235;0.072;-0.072;-9.0;10.1;33.3;55.85;9308;2018-04-16 23:33:05:702
-2.035;-8.686;0.678;-3.097;-9.294;0.439;1.062;0.608;0.239;0.082;0.44;-0.109;-9.0;10.4;32.9;55.85;9317;2018-04-16 23:33:05:711
-1.808;-8.65;1.189;-3.076;-9.302;0.418;1.268;0.652;0.771;0.04;0.613;-0.139;-9.0;10.4;32.9;55.85;9328;2018-04-16 23:33:05:722
-1.808;-8.65;1.189;-3.076;-9.302;0.418;1.268;0.652;0.771;0.04;0.613;-0.139;-8.9;10.1;32.9;55.85;9337;2018-04-16 23:33:05:731
-2.199;-8.705;1.313;-3.045;-9.313;0.406;0.689;0.604;0.795;0.151;0.777;-0.183;-8.9;10.1;32.9;55.85;9347;2018-04-16 23:33:05:741
-2.841;-8.786;0.964;-3.045;-9.313;0.406;0.689;0.604;0.795;0.484;0.693;-0.176;-8.5;10.5;32.9;55.85;9358;2018-04-16 23:33:05:752
-2.841;-8.786;0.964;-3.045;-9.313;0.406;0.689;0.604;0.795;0.484;0.693;-0.176;-8.5;10.5;32.9;55.85;9368;2018-04-16 23:33:05:762
-3.529;-9.279;0.867;-3.023;-9.316;0.494;-0.506;0.037;0.373;0.778;0.509;-0.132;-8.3;10.9;32.8;55.85;9378;2018-04-16 23:33:05:772
-4.092;-9.861;0.958;-3.023;-9.304;0.68;-1.136;-0.627;0.304;1.111;0.315;-0.029;-8.3;10.9;32.8;54.6;9388;2018-04-16 23:33:05:782
