sep=;
acc_x;acc_y;acc_z;grav_x;grav_y;grav_z;lin_acc_x;lin_acc_y;lin_acc_z;gyro_x;gyro_y;gyro_z;mag_x;mag_y;mag_z;sound_lvl;time_ms;date_time
3.454;-7.375;-1.459;7.353;2.917;5.796;-3.899;-10.292;-7.255;-0.304;-6.656;4.652;-0.8;-32.6;10.0;51.2;14;2018-04-16 23:34:40:775
6.725;-8.298;-0.063;8.35;2.041;4.72;-0.634;-10.588;-4.377;-0.391;-6.856;5.06;-0.5;-32.6;9.8;51.2;24;2018-04-16 23:34:40:785
9.42;-9.195;1.014;8.728;1.61;4.17;0.692;-10.805;-3.156;-0.27;-7.12;5.389;-0.5;-32.6;9.8;51.2;34;2018-04-16 23:34:40:795
9.42;-9.195;1.014;8.728;1.61;4.17;0.692;-10.805;-3.156;-0.061;-7.203;5.542;-0.2;-32.7;9.6;51.2;43;2018-04-16 23:34:40:804
11.137;-11.347;2.187;9.358;0.599;2.87;1.779;-11.946;-0.683;-0.061;-7.203;5.542;-0.2;-32.7;9.6;51.2;56;2018-04-16 23:34:40:817
11.137;-11.347;2.187;9.358;0.599;2.87;1.779;-11.946;-0.683;-0.013;-7.097;5.704;-0.1;-32.7;9.6;51.2;64;2018-04-16 23:34:40:825
11.398;-13.18;4.519;9.661;-0.553;1.591;1.902;-12.956;3.534;-0.18;-6.42;6.223;0.0;-32.7;9.4;51.2;74;2018-04-16 23:34:40:835
13.5;-14.03;6.147;9.674;-1.275;0.979;3.826;-12.755;5.168;-0.324;-5.753;6.77;0.0;-32.7;9.4;51.2;84;2018-04-16 23:34:40:845
13.5;-14.03;6.147;9.674;-1.275;0.979;3.826;-12.755;5.168;-0.492;-4.68;7.412;0.0;-32.7;9.2;51.2;93;2018-04-16 23:34:40:854
20.863;-13.182;9.43;9.426;-2.705;0.065;11.437;-10.477;9.364;-0.401;-3.861;7.473;0.0;-32.7;9.2;51.2;105;2018-04-16 23:34:40:866
20.863;-13.182;9.43;9.426;-2.705;0.065;11.437;-10.477;9.364;-0.401;-3.861;7.473;0.0;-32.7;9.2;51.2;114;2018-04-16 23:34:40:875
29.173;-8.833;11.111;8.929;-4.028;-0.464;20.244;-4.806;11.576;-0.062;-2.37;7.055;-0.2;-32.5;9.1;50.97;124;2018-04-16 23:34:40:885
29.173;-8.833;11.111;8.929;-4.028;-0.464;20.244;-4.806;11.576;-0.062;-2.37;7.055;-0.2;-32.5;9.1;50.97;133;2018-04-16 23:34:40:894
34.947;-3.814;10.259;8.407;-5.017;-0.571;27.133;1.879;10.262;0.209;-0.793;5.834;-1.2;-32.2;8.7;50.97;143;2018-04-16 23:34:40:904
35.335;-2.374;8.468;8.407;-5.017;-0.571;27.133;1.879;10.262;0.285;0.82;3.69;-6.7;-29.4;10.3;50.97;153;2018-04-16 23:34:40:914
35.335;-2.374;8.468;8.113;-5.499;-0.337;24.24;3.144;8.503;0.296;1.552;2.228;-6.7;-29.4;10.3;50.97;164;2018-04-16 23:34:40:925
30.113;-2.75;7.474;8.067;-5.573;-0.167;19.903;2.225;6.867;0.424;2.09;1.026;-9.0;-27.8;9.0;50.97;174;2018-04-16 23:34:40:935
23.71;-4.567;6.079;8.067;-5.573;-0.167;19.903;2.225;6.867;0.424;2.09;1.026;-9.0;-27.8;9.0;50.97;184;2018-04-16 23:34:40:945
23.71;-4.567;6.079;8.055;-5.586;0.301;12.123;0.198;6.189;0.632;2.483;0.028;-11.1;-27.6;8.3;50.97;194;2018-04-16 23:34:40:955
16.787;-6.395;6.576;8.054;-5.564;0.583;8.733;-0.831;5.993;1.019;2.495;-0.191;-12.4;-26.3;7.5;50.97;204;2018-04-16 23:34:40:965
16.787;-6.395;6.576;8.054;-5.564;0.583;8.733;-0.831;5.993;1.019;2.495;-0.191;-12.4;-26.3;7.5;50.97;213;2018-04-16 23:34:40:974
13.683;-6.797;7.315;7.998;-5.565;1.113;5.742;-0.97;5.828;1.943;2.017;0.367;-13.1;-27.1;8.2;50.97;223;2018-04-16 23:34:40:984
14.571;-5.036;3.807;7.998;-5.565;1.113;5.742;-0.97;5.828;2.452;1.906;0.804;-13.5;-25.5;9.2;50.97;233;2018-04-16 23:34:40:994
14.571;-5.036;3.807;7.843;-5.641;1.687;7.023;1.027;0.875;2.93;1.541;1.102;-13.5;-25.5;9.2;50.97;243;2018-04-16 23:34:41:004
15.729;-3.132;1.143;7.774;-5.666;1.908;7.955;2.534;-0.765;3.123;0.865;1.076;-14.7;-24.9;8.4;50.97;253;2018-04-16 23:34:41:014
15.729;-3.132;1.143;7.774;-5.666;1.908;7.955;2.534;-0.765;3.123;0.865;1.076;-14.7;-24.9;8.4;50.97;263;2018-04-16 23:34:41:024
17.885;-0.055;0.389;7.724;-5.606;2.254;10.734;6.184;-1.423;3.482;-0.303;0.571;-15.0;-24.3;9.7;50.97;274;2018-04-16 23:34:41:035
17.876;1.077;-0.418;7.793;-5.463;2.365;10.083;6.541;-2.782;3.936;-1.495;-0.512;-15.0;-24.3;9.7;50.97;284;2018-04-16 23:34:41:045
17.876;1.077;-0.418;7.793;-5.463;2.365;10.083;6.541;-2.782;3.928;-2.413;-1.559;-15.8;-24.5;11.4;50.97;294;2018-04-16 23:34:41:055
9.98;-0.782;-2.461;8.076;-5.029;2.378;1.904;4.247;-4.839;3.928;-2.413;-1.559;-14.4;-22.1;13.6;50.97;303;2018-04-16 23:34:41:064
9.98;-0.782;-2.461;8.076;-5.029;2.378;1.904;4.247;-4.839;3.574;-3.19;-1.719;-14.4;-22.1;13.6;50.97;314;2018-04-16 23:34:41:075
3.965;-2.119;-6.407;8.378;-4.64;2.109;-5.376;2.181;-9.019;3.329;-3.498;-1.545;-14.4;-21.8;12.2;50.97;324;2018-04-16 23:34:41:085
4.422;-2.337;-3.855;8.378;-4.64;2.109;-5.376;2.181;-9.019;2.138;-3.914;-0.649;-14.4;-21.8;12.2;50.97;334;2018-04-16 23:34:41:095
4.422;-2.337;-3.855;8.566;-4.487;1.63;-0.926;2.849;-2.706;1.719;-3.8;-0.285;-13.1;-20.3;13.9;50.97;343;2018-04-16 23:34:41:104
4.422;-2.337;-3.855;8.566;-4.487;1.63;-0.926;2.849;-2.706;1.719;-3.8;-0.285;-13.1;-20.3;13.9;50.97;354;2018-04-16 23:34:41:115
8.551;-0.821;1.666;8.632;-4.436;1.408;-0.081;3.615;0.258;1.754;-3.78;-0.345;-11.7;-20.4;15.5;50.97;364;2018-04-16 23:34:41:125
8.551;-0.821;1.666;8.632;-4.436;1.408;-0.081;3.615;0.258;1.754;-3.78;-0.345;-11.7;-20.4;15.5;50.97;374;2018-04-16 23:34:41:135
7.997;-0.393;1.232;8.715;-4.347;1.149;-0.718;3.954;0.082;2.084;-3.725;-0.611;-11.3;-20.8;16.8;50.97;384;2018-04-16 23:34:41:145
7.997;-0.393;1.232;8.715;-4.347;1.149;-0.718;3.954;0.082;1.411;-3.376;-0.439;-11.3;-20.8;16.8;50.97;394;2018-04-16 23:34:41:155
7.997;-0.393;1.232;8.715;-4.347;1.149;-0.718;3.954;0.082;1.411;-3.376;-0.439;-11.3;-20.8;16.8;50.97;403;2018-04-16 23:34:41:164
7.997;-0.393;1.232;8.715;-4.347;1.149;-0.718;3.954;0.082;1.411;-3.376;-0.439;-11.3;-20.8;16.8;50.97;413;2018-04-16 23:34:41:174
4.861;-0.429;-0.311;8.918;-4.075;0.165;-4.057;3.647;-0.476;1.221;-3.179;-0.418;-8.9;-18.9;19.4;50.97;423;2018-04-16 23:34:41:184
6.201;-0.097;1.051;8.918;-4.075;0.165;-4.057;3.647;-0.476;0.567;-1.747;-0.533;-5.9;-17.6;20.2;50.97;433;2018-04-16 23:34:41:194
6.201;-0.097;1.051;8.99;-3.891;-0.446;-2.752;3.961;1.202;0.409;-1.115;-0.661;-5.9;-17.6;20.2;50.97;443;2018-04-16 23:34:41:204
6.489;0.121;-0.545;8.99;-3.891;-0.446;-2.752;3.961;1.202;0.409;-1.115;-0.661;-4.9;-16.6;21.9;50.97;453;2018-04-16 23:34:41:214
8.399;-1.003;0.274;9.036;-3.76;-0.618;-1.541;3.425;-0.053;0.39;-1.167;-0.775;-4.9;-16.6;21.9;50.56;464;2018-04-16 23:34:41:225
8.399;-1.003;0.274;9.036;-3.76;-0.618;-1.541;3.425;-0.053;0.798;-1.541;-0.94;-4.3;-16.9;22.0;50.56;473;2018-04-16 23:34:41:234
6.747;-4.944;2.552;9.081;-3.607;-0.835;-2.334;-1.337;3.387;1.294;-1.698;-0.874;-4.3;-16.9;22.0;50.56;483;2018-04-16 23:34:41:244
4.488;-2.914;-3.209;9.081;-3.607;-0.835;-2.334;-1.337;3.387;1.348;-1.547;-0.691;-3.9;-16.5;21.0;50.56;493;2018-04-16 23:34:41:254
4.488;-2.914;-3.209;9.105;-3.492;-1.035;-4.938;1.549;-3.747;0.535;-0.878;-0.183;-3.9;-16.5;21.0;50.56;503;2018-04-16 23:34:41:264
6.1;2.862;-4.677;9.105;-3.492;-1.035;-4.938;1.549;-3.747;-0.348;-0.539;0.288;-3.1;-15.1;23.9;50.56;513;2018-04-16 23:34:41:274
11.059;2.057;3.056;9.089;-3.488;-1.176;0.208;7.447;2.528;-0.264;-1.045;0.258;-3.1;-15.1;23.9;50.56;524;2018-04-16 23:34:41:285
11.059;2.057;3.056;9.089;-3.488;-1.176;0.208;7.447;2.528;0.323;-1.42;-0.202;-1.9;-15.8;23.0;50.56;533;2018-04-16 23:34:41:294
7.828;-0.709;4.963;9.072;-3.457;-1.383;-1.244;2.749;6.346;0.726;-1.272;-0.304;-1.9;-15.8;23.0;50.56;544;2018-04-16 23:34:41:305
6.173;-4.243;3.19;9.072;-3.457;-1.383;-1.244;2.749;6.346;0.726;-1.272;-0.304;-1.7;-15.7;21.1;50.56;553;2018-04-16 23:34:41:314
6.173;-4.243;3.19;9.049;-3.479;-1.479;-2.767;-1.581;5.093;0.563;-0.561;0.182;-1.7;-15.7;21.1;50.56;564;2018-04-16 23:34:41:325
7.8;-5.971;4.548;9.049;-3.479;-1.479;-2.767;-1.581;5.093;0.674;0.261;0.848;-1.7;-14.7;23.3;50.56;573;2018-04-16 23:34:41:334
9.686;-3.795;4.946;8.995;-3.649;-1.394;0.541;-1.219;6.339;1.315;0.024;1.003;-1.7;-14.7;23.3;50.56;583;2018-04-16 23:34:41:344
9.686;-3.795;4.946;8.995;-3.649;-1.394;0.541;-1.219;6.339;1.315;0.024;1.003;-1.4;-14.5;22.6;50.56;594;2018-04-16 23:34:41:355
11.93;-1.405;-0.824;8.904;-3.886;-1.335;3.026;2.481;0.511;2.487;-0.853;1.01;-1.4;-14.5;22.6;50.56;603;2018-04-16 23:34:41:364
8.905;-1.923;-7.602;8.904;-3.886;-1.335;3.026;2.481;0.511;1.675;-0.533;0.386;-0.7;-13.5;24.8;50.56;614;2018-04-16 23:34:41:375
8.905;-1.923;-7.602;8.851;-4.013;-1.312;-0.552;2.337;-5.211;0.63;-0.365;0.496;-0.7;-13.5;24.8;50.56;623;2018-04-16 23:34:41:384
8.856;-1.608;-4.063;8.851;-4.013;-1.312;-0.552;2.337;-5.211;0.63;-0.365;0.496;-1.0;-13.3;24.7;50.56;634;2018-04-16 23:34:41:395
11.823;-3.015;4.393;8.782;-4.131;-1.403;0.683;2.132;2.641;-0.154;-0.568;0.892;-1.0;-13.3;24.7;50.56;643;2018-04-16 23:34:41:404
11.823;-3.015;4.393;8.782;-4.131;-1.403;0.683;2.132;2.641;-0.258;0.843;1.093;-1.2;-13.5;23.9;50.56;654;2018-04-16 23:34:41:415
12.621;-9.145;0.796;8.714;-4.314;-1.275;3.907;-4.831;2.071;-0.698;2.029;1.133;-1.2;-13.5;23.9;50.56;663;2018-04-16 23:34:41:424
15.449;-9.602;-2.77;8.714;-4.314;-1.275;3.907;-4.831;2.071;-1.404;2.961;1.051;-1.7;-14.0;23.9;50.56;674;2018-04-16 23:34:41:435
15.449;-9.602;-2.77;8.691;-4.453;-0.892;6.837;-4.403;-2.242;-1.834;3.268;0.54;-1.7;-14.0;23.9;50.56;683;2018-04-16 23:34:41:444
11.93;-6.235;-3.348;8.691;-4.453;-0.892;6.837;-4.403;-2.242;-1.891;2.898;0.363;-1.6;-14.5;24.0;50.56;694;2018-04-16 23:34:41:455
10.356;-2.766;-3.024;8.69;-4.51;-0.559;1.253;0.822;-2.629;-1.696;2.403;0.775;-1.6;-14.5;24.0;50.56;703;2018-04-16 23:34:41:464
10.356;-2.766;-3.024;8.69;-4.51;-0.559;1.253;0.822;-2.629;-1.632;2.055;0.591;-1.4;-14.3;24.2;50.56;713;2018-04-16 23:34:41:474
8.07;-2.695;0.287;8.655;-4.596;-0.364;-0.586;1.901;0.651;-1.747;1.608;0.505;-1.4;-14.3;24.2;50.56;724;2018-04-16 23:34:41:485
4.434;-4.067;4.52;8.655;-4.596;-0.364;-0.586;1.901;0.651;-1.747;1.608;0.505;-1.3;-14.2;24.3;50.56;733;2018-04-16 23:34:41:494
4.434;-4.067;4.52;8.572;-4.759;-0.208;-4.755;0.65;4.601;-1.493;1.913;1.233;-1.3;-14.2;24.3;50.56;744;2018-04-16 23:34:41:505
2.495;-4.038;3.018;8.572;-4.759;-0.208;-4.755;0.65;4.601;-1.047;1.644;1.631;-1.3;-14.2;24.3;50.56;753;2018-04-16 23:34:41:514
2.495;-4.038;3.018;8.401;-5.059;-0.072;-6.836;1.331;1.721;-0.489;0.853;1.836;-1.5;-14.1;24.4;50.56;764;2018-04-16 23:34:41:525
1.307;-3.372;0.9;8.31;-5.207;-0.087;-7.171;2.025;0.51;0.094;-0.264;2.032;-1.6;-14.1;24.3;50.0;774;2018-04-16 23:34:41:535
1.62;-1.405;0.022;8.31;-5.207;-0.087;-7.171;2.025;0.51;0.094;-0.264;2.032;-2.2;-14.1;24.2;50.0;784;2018-04-16 23:34:41:545
1.62;-1.405;0.022;8.029;-5.623;-0.293;-6.384;4.235;0.416;0.735;-2.088;2.773;-2.2;-14.1;24.2;50.0;793;2018-04-16 23:34:41:554
1.425;-2.121;0.925;8.029;-5.623;-0.293;-6.384;4.235;0.416;0.668;-2.226;3.437;-3.1;-14.2;24.7;50.0;803;2018-04-16 23:34:41:564
1.425;-2.121;0.925;7.573;-6.207;-0.546;-6.528;2.237;1.136;0.536;-1.842;4.436;-3.1;-14.2;24.7;50.0;813;2018-04-16 23:34:41:574
0.116;-7.934;-0.7;7.573;-6.207;-0.546;-6.528;2.237;1.136;0.555;-1.994;5.779;-3.6;-13.9;24.6;50.0;824;2018-04-16 23:34:41:585
-0.441;-12.949;-1.08;6.78;-7.045;-0.759;-7.566;-5.388;-0.558;0.555;-1.994;5.779;-3.6;-13.9;24.6;50.0;834;2018-04-16 23:34:41:595
-0.441;-9.023;0.303;6.068;-7.655;-0.864;-5.949;-4.607;0.337;0.899;-2.529;8.588;-4.1;-13.5;24.8;50.0;844;2018-04-16 23:34:41:605
2.059;-9.023;0.303;6.068;-7.655;-0.864;-5.949;-4.607;0.337;0.899;-2.529;8.588;-4.1;-13.5;24.8;50.0;854;2018-04-16 23:34:41:615
3.505;-5.958;-0.328;4.401;-8.721;-0.865;-0.895;2.763;0.537;1.55;-2.44;9.895;-4.8;-12.6;25.4;50.0;864;2018-04-16 23:34:41:625
3.505;-5.958;-0.328;4.401;-8.721;-0.865;-0.895;2.763;0.537;2.326;-2.421;9.764;-4.8;-12.6;25.4;50.0;874;2018-04-16 23:34:41:635
2.88;-4.75;0.79;2.61;-9.436;-0.564;0.271;4.686;1.354;2.773;-1.776;9.573;-5.0;-10.3;25.7;50.0;884;2018-04-16 23:34:41:645
2.534;-4.687;0.463;1.779;-9.637;-0.351;0.755;4.951;0.814;2.823;-1.532;9.525;-5.0;-10.3;25.7;50.0;898;2018-04-16 23:34:41:659
2.534;-4.687;0.463;1.779;-9.637;-0.351;0.755;4.951;0.814;2.823;-1.532;9.525;-5.5;-9.9;24.9;50.0;904;2018-04-16 23:34:41:665
2.418;-4.318;-0.327;-0.061;-9.805;0.179;2.479;5.487;-0.506;2.775;-0.704;9.391;-5.5;-9.9;24.9;50.0;914;2018-04-16 23:34:41:675
2.418;-4.318;-0.327;-0.061;-9.805;0.179;2.479;5.487;-0.506;2.258;-1.015;8.937;-5.7;-6.6;25.8;50.0;923;2018-04-16 23:34:41:684
2.521;-2.277;-3.935;-1.79;-9.621;0.64;4.311;7.344;-4.575;1.6;-1.983;8.272;-5.7;-6.6;25.8;50.0;933;2018-04-16 23:34:41:694
1.014;-5.711;-1.835;-1.79;-9.621;0.64;4.311;7.344;-4.575;1.6;-1.983;8.272;-5.2;-3.6;25.1;50.0;944;2018-04-16 23:34:41:705
1.014;-5.711;-1.835;-3.157;-9.234;0.964;-3.039;-10.573;2.004;0.484;-3.57;7.084;-5.2;-3.6;25.1;50.0;953;2018-04-16 23:34:41:714
-17.998;-37.119;4.741;-3.157;-9.234;0.964;-3.039;-10.573;2.004;0.125;-3.751;8.002;-3.8;-1.4;28.5;50.0;964;2018-04-16 23:34:41:725
-5.885;-34.042;9.744;-4.597;-8.588;1.136;-6.003;-30.597;5.098;-3.135;-3.229;7.758;-3.8;-1.4;28.5;50.0;973;2018-04-16 23:34:41:734
-5.885;-34.042;9.744;-5.017;-8.381;0.865;-3.159;-23.286;12.976;-5.536;-2.336;1.706;-1.5;-0.1;27.2;50.0;984;2018-04-16 23:34:41:745
-14.821;-26.572;16.531;-4.982;-8.431;0.51;-9.839;-18.141;16.021;-5.536;-2.336;1.706;-1.5;-0.1;27.2;50.0;993;2018-04-16 23:34:41:754
-14.821;-26.572;16.531;-4.982;-8.431;0.51;-9.839;-18.141;16.021;-4.508;-0.419;-1.214;-1.5;-0.1;27.2;50.0;1026;2018-04-16 23:34:41:787
-14.821;-26.572;16.531;-4.982;-8.431;0.51;-9.839;-18.141;16.021;-4.508;-0.419;-1.214;-1.5;-0.1;27.2;50.0;1030;2018-04-16 23:34:41:791
-14.821;-26.572;16.531;-4.982;-8.431;0.51;-9.839;-18.141;16.021;-4.508;-0.419;-1.214;-1.5;-0.1;27.2;50.0;1030;2018-04-16 23:34:41:791
-7.278;-12.52;3.948;-4.786;-8.558;-0.164;-2.492;-3.963;4.112;-4.01;-0.15;-1.172;-0.1;-2.6;26.6;50.0;1034;2018-04-16 23:34:41:795
-7.278;-12.52;3.948;-4.786;-8.558;-0.164;-2.492;-3.963;4.112;0.65;-10.178;-0.341;-0.1;-2.6;26.6;50.0;1044;2018-04-16 23:34:41:805
-0.479;-3.345;0.655;-4.619;-8.65;0.11;4.14;5.305;0.545;1.269;-10.59;-0.241;2.7;-6.0;26.0;50.0;1054;2018-04-16 23:34:41:815
-5.051;-8.127;5.586;-4.619;-8.65;0.11;4.14;5.305;0.545;1.72;-9.487;-0.013;2.7;-6.0;26.0;50.0;1064;2018-04-16 23:34:41:825
-5.051;-8.127;5.586;-4.455;-8.639;1.298;-0.999;-0.125;2.538;2.142;-8.087;0.097;7.1;-5.1;23.9;50.0;1074;2018-04-16 23:34:41:835
-6.062;-9.777;-1.322;-4.455;-8.639;1.298;-0.999;-0.125;2.538;1.968;-5.946;0.011;7.1;-5.1;23.9;50.0;1084;2018-04-16 23:34:41:845
-6.062;-9.777;-1.322;-4.258;-8.574;2.129;-2.355;-1.471;-3.839;1.968;-5.946;0.011;11.2;-4.5;22.5;68.63;1094;2018-04-16 23:34:41:855
-6.179;-9.124;0.032;-4.241;-8.573;2.165;-1.939;-0.551;-2.133;0.326;-0.12;-0.15;11.2;-4.5;22.5;68.63;1104;2018-04-16 23:34:41:865
-6.179;-9.124;0.032;-4.241;-8.573;2.165;-1.939;-0.551;-2.133;-0.638;3.813;-0.071;14.1;-3.5;23.3;68.63;1114;2018-04-16 23:34:41:875
-4.513;-8.655;2.586;-4.378;-8.601;1.741;-0.135;-0.054;0.845;-0.695;5.15;-0.02;14.1;-3.5;23.3;68.63;1124;2018-04-16 23:34:41:885
-3.43;-8.805;2.437;-4.378;-8.601;1.741;-0.135;-0.054;0.845;-0.572;5.823;-0.072;11.8;-4.6;23.8;68.63;1134;2018-04-16 23:34:41:895
-3.43;-8.805;2.437;-4.52;-8.628;1.14;1.108;-0.311;0.988;-0.379;6.041;-0.156;11.8;-4.6;23.8;68.63;1144;2018-04-16 23:34:41:905
-3.703;-9.21;1.199;-4.52;-8.628;1.14;1.108;-0.311;0.988;-0.379;6.041;-0.156;8.7;-5.0;25.7;68.63;1154;2018-04-16 23:34:41:915
-3.676;-9.173;-0.202;-4.589;-8.648;0.565;0.861;-0.592;-0.324;-0.092;5.775;-0.122;8.7;-5.0;25.7;68.63;1164;2018-04-16 23:34:41:925
-3.676;-9.173;-0.202;-4.589;-8.648;0.565;0.861;-0.592;-0.324;0.097;5.209;-0.068;5.6;-4.8;26.5;68.63;1173;2018-04-16 23:34:41:934
-3.663;-9.143;-0.207;-4.604;-8.657;0.157;0.941;-0.486;-0.364;0.285;4.473;-0.054;5.6;-4.8;26.5;68.63;1183;2018-04-16 23:34:41:944
-3.891;-9.327;0.221;-4.604;-8.657;0.157;0.941;-0.486;-0.364;0.454;3.79;-0.061;4.0;-3.9;25.9;68.63;1193;2018-04-16 23:34:41:954
-3.891;-9.327;0.221;-4.589;-8.666;-0.071;0.659;-0.663;0.234;0.64;2.974;-0.057;4.0;-3.9;25.9;68.63;1203;2018-04-16 23:34:41:964
-3.885;-9.127;-0.004;-4.589;-8.666;-0.071;0.659;-0.663;0.234;0.707;2.469;-0.046;2.3;-4.4;26.4;68.63;1213;2018-04-16 23:34:41:974
-3.891;-8.945;-0.211;-4.568;-8.676;-0.173;0.704;-0.297;0.039;0.724;1.99;-0.05;2.3;-4.4;26.4;68.63;1224;2018-04-16 23:34:41:985
-3.891;-8.945;-0.211;-4.568;-8.676;-0.173;0.704;-0.297;0.039;0.672;1.523;-0.045;1.5;-3.5;26.6;68.63;1234;2018-04-16 23:34:41:995
-4.043;-9.039;-0.266;-4.55;-8.685;-0.196;0.508;-0.354;-0.069;0.564;1.092;-0.009;1.5;-3.5;26.6;68.63;1244;2018-04-16 23:34:42:005
-4.037;-9.046;0.017;-4.55;-8.685;-0.196;0.508;-0.354;-0.069;0.428;0.706;0.007;0.9;-3.4;25.8;68.63;1254;2018-04-16 23:34:42:015
-4.037;-9.046;0.017;-4.544;-8.688;-0.186;0.536;-0.358;0.297;0.428;0.706;0.007;0.9;-3.4;25.8;68.63;1264;2018-04-16 23:34:42:025
-3.942;-9.011;0.414;-4.544;-8.688;-0.186;0.536;-0.358;0.297;0.203;0.285;0.06;1.4;-3.5;25.7;68.63;1274;2018-04-16 23:34:42:035
-3.713;-8.905;0.777;-4.55;-8.685;-0.176;0.752;-0.261;0.856;0.056;0.134;0.088;1.4;-3.5;25.7;68.63;1283;2018-04-16 23:34:42:044
-3.713;-8.905;0.777;-4.55;-8.685;-0.176;0.752;-0.261;0.856;-0.077;0.062;0.112;1.2;-3.4;26.6;68.63;1293;2018-04-16 23:34:42:054
-3.516;-8.947;1.076;-4.561;-8.679;-0.192;1.046;-0.268;1.268;-0.192;0.021;0.123;1.2;-3.4;26.6;68.63;1304;2018-04-16 23:34:42:065
-3.461;-9.017;1.227;-4.561;-8.679;-0.192;1.046;-0.268;1.268;-0.301;-0.034;0.132;1.1;-3.4;26.7;68.63;1313;2018-04-16 23:34:42:074
-3.461;-9.017;1.227;-4.573;-8.672;-0.226;1.168;-0.358;1.433;-0.307;-0.086;0.138;1.1;-3.4;26.7;68.63;1323;2018-04-16 23:34:42:084
-3.286;-9.115;1.064;-4.573;-8.672;-0.226;1.168;-0.358;1.433;-0.303;-0.188;0.14;1.7;-2.5;25.9;68.63;1334;2018-04-16 23:34:42:095
-3.196;-9.203;0.839;-4.586;-8.665;-0.254;1.352;-0.527;1.138;-0.288;-0.345;0.139;1.7;-2.5;25.9;68.63;1344;2018-04-16 23:34:42:105
-3.196;-9.203;0.839;-4.586;-8.665;-0.254;1.352;-0.527;1.138;-0.257;-0.534;0.138;2.0;-2.6;27.2;68.63;1353;2018-04-16 23:34:42:114
-3.164;-9.129;0.831;-4.599;-8.658;-0.237;1.435;-0.471;1.068;-0.257;-0.534;0.138;2.0;-2.6;27.2;68.63;1363;2018-04-16 23:34:42:124
-3.19;-8.996;0.894;-4.599;-8.658;-0.237;1.435;-0.471;1.068;-0.199;-0.794;0.125;1.3;-3.6;27.7;68.63;1373;2018-04-16 23:34:42:134
-3.19;-8.996;0.894;-4.61;-8.654;-0.179;1.39;-0.33;1.092;-0.154;-0.916;0.11;1.3;-3.6;27.7;68.63;1383;2018-04-16 23:34:42:144
-3.357;-8.985;0.925;-4.61;-8.654;-0.179;1.39;-0.33;1.092;-0.103;-1.021;0.088;1.5;-3.8;27.9;68.63;1394;2018-04-16 23:34:42:155
-3.555;-9.056;0.923;-4.617;-8.651;-0.092;1.144;-0.355;1.036;-0.103;-1.021;0.088;1.5;-3.8;27.9;68.63;1403;2018-04-16 23:34:42:164
-3.555;-9.056;0.923;-4.617;-8.651;-0.092;1.144;-0.355;1.036;-0.068;-1.048;0.071;1.9;-3.6;27.0;54.22;1413;2018-04-16 23:34:42:174
-3.771;-9.187;0.891;-4.62;-8.65;0.002;0.849;-0.537;0.888;-0.055;-1.043;0.057;1.9;-3.6;27.0;54.22;1424;2018-04-16 23:34:42:185
-3.909;-9.189;0.836;-4.62;-8.65;0.002;0.849;-0.537;0.888;-0.051;-1.013;0.046;1.8;-3.6;26.8;54.22;1433;2018-04-16 23:34:42:194
-3.909;-9.189;0.836;-4.62;-8.65;0.091;0.709;-0.517;0.689;-0.046;-0.974;0.04;1.8;-3.6;26.8;54.22;1444;2018-04-16 23:34:42:205
-3.966;-9.031;0.657;-4.62;-8.65;0.091;0.709;-0.517;0.689;-0.051;-0.924;0.023;1.4;-3.5;27.0;54.22;1453;2018-04-16 23:34:42:214
-4.003;-8.894;0.479;-4.615;-8.651;0.171;0.612;-0.244;0.308;-0.057;-0.914;0.015;1.4;-3.5;27.0;54.22;1464;2018-04-16 23:34:42:225
-4.003;-8.894;0.479;-4.615;-8.651;0.171;0.612;-0.244;0.308;-0.057;-0.914;0.015;1.1;-3.5;27.1;54.22;1474;2018-04-16 23:34:42:235
-4.204;-8.759;-1.156;-4.609;-8.652;0.252;0.405;-0.107;-1.408;-0.021;-1.123;0.01;1.1;-3.5;27.1;54.22;1483;2018-04-16 23:34:42:244
-4.446;-8.79;-0.447;-4.609;-8.652;0.252;0.405;-0.107;-1.408;0.253;-2.073;0.018;1.1;-3.4;27.2;54.22;1494;2018-04-16 23:34:42:255
-4.446;-8.79;-0.447;-4.597;-8.649;0.476;0.127;-0.165;-0.41;0.253;-2.073;0.018;1.1;-3.4;27.2;54.22;1503;2018-04-16 23:34:42:264
-4.48;-8.86;0.814;-4.597;-8.649;0.476;0.127;-0.165;-0.41;0.44;-2.42;0.055;1.2;-3.4;27.3;54.22;1514;2018-04-16 23:34:42:275
-4.384;-8.899;0.622;-4.577;-8.639;0.767;0.141;-0.245;0.085;0.461;-2.224;0.068;1.2;-3.4;27.3;54.22;1523;2018-04-16 23:34:42:284
-4.384;-8.899;0.622;-4.577;-8.639;0.767;0.141;-0.245;0.085;0.413;-1.864;0.071;1.6;-3.4;27.3;54.22;1534;2018-04-16 23:34:42:295
-4.203;-8.923;0.042;-4.558;-8.628;0.971;0.355;-0.295;-0.929;0.309;-1.436;0.068;1.6;-3.4;27.3;54.22;1544;2018-04-16 23:34:42:305
-3.972;-8.957;-0.134;-4.558;-8.628;0.971;0.355;-0.295;-0.929;0.077;-0.681;0.068;2.1;-3.4;27.3;54.22;1553;2018-04-16 23:34:42:314
-3.972;-8.957;-0.134;-4.552;-8.625;1.031;0.637;-0.367;-1.043;-0.087;-0.114;0.057;2.1;-3.4;27.3;54.22;1564;2018-04-16 23:34:42:325
-3.838;-9.069;0.29;-4.552;-8.625;1.031;0.637;-0.367;-1.043;-0.211;0.452;0.043;2.6;-3.4;27.4;54.22;1573;2018-04-16 23:34:42:334
-3.762;-9.179;0.702;-4.562;-8.629;0.947;0.777;-0.545;-0.369;-0.211;0.452;0.043;2.6;-3.4;27.4;54.22;1584;2018-04-16 23:34:42:345
-3.762;-9.179;0.702;-4.562;-8.629;0.947;0.777;-0.545;-0.369;-0.271;1.114;0.007;3.0;-3.4;27.4;54.22;1594;2018-04-16 23:34:42:355
-3.733;-9.128;0.86;-4.574;-8.639;0.788;0.841;-0.489;0.071;-0.221;1.385;-0.026;3.0;-3.4;27.4;54.22;1604;2018-04-16 23:34:42:365
-3.716;-8.948;0.812;-4.574;-8.639;0.788;0.841;-0.489;0.071;-0.083;1.594;-0.061;3.5;-3.4;27.3;54.22;1613;2018-04-16 23:34:42:374
-3.716;-8.948;0.812;-4.578;-8.65;0.626;0.879;-0.282;0.145;-0.083;1.594;-0.061;3.5;-3.4;27.3;54.22;1624;2018-04-16 23:34:42:385
-3.719;-8.875;0.612;-4.578;-8.65;0.626;0.879;-0.282;0.145;-0.027;1.569;-0.071;3.9;-3.4;27.5;54.22;1634;2018-04-16 23:34:42:395
-3.721;-8.842;0.517;-4.576;-8.66;0.482;0.855;-0.181;0.036;-0.022;1.504;-0.07;4.0;-3.5;27.4;54.22;1644;2018-04-16 23:34:42:405
-3.721;-8.842;0.517;-4.576;-8.66;0.482;0.855;-0.181;0.036;-0.055;1.356;-0.064;4.0;-3.5;27.4;54.22;1654;2018-04-16 23:34:42:415
-3.739;-8.984;0.401;-4.568;-8.671;0.348;0.83;-0.314;0.053;-0.084;1.23;-0.055;4.3;-3.5;27.4;54.22;1663;2018-04-16 23:34:42:424
-3.804;-9.105;0.47;-4.568;-8.671;0.348;0.83;-0.314;0.053;-0.084;1.23;-0.055;4.3;-3.5;27.4;54.22;1673;2018-04-16 23:34:42:434
-3.804;-9.105;0.47;-4.558;-8.68;0.237;0.742;-0.428;0.252;-0.099;0.971;-0.046;4.5;-3.5;27.2;54.22;1684;2018-04-16 23:34:42:445
-3.816;-9.075;0.566;-4.558;-8.68;0.237;0.742;-0.428;0.252;-0.07;0.681;-0.04;4.5;-3.5;27.2;54.22;1693;2018-04-16 23:34:42:454
-3.827;-8.996;0.608;-4.547;-8.687;0.168;0.72;-0.309;0.44;-0.07;0.681;-0.04;4.6;-3.6;27.1;54.22;1703;2018-04-16 23:34:42:464
-3.827;-8.996;0.608;-4.547;-8.687;0.168;0.72;-0.309;0.44;-0.028;0.396;-0.034;4.6;-3.6;27.1;54.22;1713;2018-04-16 23:34:42:474
-3.83;-8.871;0.589;-4.536;-8.694;0.143;0.706;-0.177;0.446;-0.006;0.216;-0.033;4.7;-3.6;27.0;54.22;1724;2018-04-16 23:34:42:485
-3.83;-8.774;0.593;-4.536;-8.694;0.143;0.706;-0.177;0.446;0.001;-0.007;-0.028;4.7;-3.6;27.0;49.8;1734;2018-04-16 23:34:42:495
-3.898;-8.774;0.593;-4.525;-8.699;0.148;0.619;-0.07;0.48;0.001;-0.007;-0.028;4.7;-3.6;27.0;49.8;1744;2018-04-16 23:34:42:505
-3.968;-8.819;0.66;-4.525;-8.699;0.148;0.619;-0.07;0.48;-0.021;-0.16;-0.021;4.7;-3.6;27.0;49.8;1753;2018-04-16 23:34:42:514
-4.037;-8.945;0.661;-4.517;-8.703;0.165;0.496;-0.205;0.516;-0.046;-0.224;-0.011;4.7;-3.6;27.0;49.8;1764;2018-04-16 23:34:42:525
-4.037;-8.945;0.661;-4.517;-8.703;0.165;0.496;-0.205;0.516;-0.095;-0.302;0.006;4.7;-3.6;26.9;49.8;1774;2018-04-16 23:34:42:535
-3.994;-8.948;0.606;-4.512;-8.705;0.18;0.519;-0.243;0.425;-0.125;-0.36;0.018;4.7;-3.6;26.9;49.8;1784;2018-04-16 23:34:42:545
-3.875;-8.88;0.497;-4.512;-8.705;0.18;0.519;-0.243;0.425;-0.125;-0.36;0.018;4.6;-3.5;27.0;49.8;1794;2018-04-16 23:34:42:555
-3.875;-8.88;0.497;-4.509;-8.706;0.198;0.661;-0.139;0.29;-0.15;-0.481;0.027;4.6;-3.5;27.0;49.8;1804;2018-04-16 23:34:42:565
-3.875;-8.88;0.497;-4.509;-8.706;0.198;0.661;-0.139;0.29;-0.15;-0.481;0.027;4.6;-3.5;27.0;49.8;1814;2018-04-16 23:34:42:575
-3.886;-8.912;0.494;-4.507;-8.707;0.211;0.675;-0.152;0.275;-0.136;-0.757;0.026;4.5;-3.6;27.0;49.8;1826;2018-04-16 23:34:42:587
-3.886;-8.912;0.494;-4.502;-8.708;0.258;0.59;-0.223;0.261;-0.136;-0.757;0.026;4.3;-3.6;27.1;49.8;1834;2018-04-16 23:34:42:595
-4.013;-8.894;0.749;-4.502;-8.708;0.258;0.59;-0.223;0.261;-0.068;-0.94;0.017;4.3;-3.6;27.1;49.8;1843;2018-04-16 23:34:42:604
-4.013;-8.894;0.749;-4.494;-8.709;0.343;0.455;-0.174;0.471;-0.007;-1.021;0.01;4.1;-3.6;27.2;49.8;1854;2018-04-16 23:34:42:615
-4.107;-8.868;0.882;-4.494;-8.709;0.343;0.455;-0.174;0.471;0.07;-1.018;0.004;4.1;-3.6;27.2;49.8;1863;2018-04-16 23:34:42:624
-4.177;-8.896;0.688;-4.483;-8.71;0.449;0.331;-0.161;0.348;0.111;-0.922;0.0;3.9;-3.7;27.2;49.8;1873;2018-04-16 23:34:42:634
-4.177;-8.896;0.688;-4.477;-8.711;0.505;0.283;-0.186;0.109;0.125;-0.867;0.0;3.9;-3.7;27.2;49.8;1883;2018-04-16 23:34:42:644
-4.223;-8.898;0.408;-4.477;-8.711;0.505;0.283;-0.186;0.109;0.13;-0.826;0.006;3.8;-3.7;27.2;49.8;1893;2018-04-16 23:34:42:654
-4.221;-8.877;0.243;-4.465;-8.71;0.6;0.236;-0.184;-0.324;0.122;-0.773;0.011;3.8;-3.7;27.2;49.8;1903;2018-04-16 23:34:42:664
-4.221;-8.877;0.243;-4.465;-8.71;0.6;0.236;-0.184;-0.324;0.1;-0.674;0.012;3.7;-3.8;27.2;49.8;1914;2018-04-16 23:34:42:675
-4.178;-8.869;0.238;-4.457;-8.71;0.672;0.279;-0.16;-0.434;0.1;-0.674;0.012;3.7;-3.8;27.2;49.8;1923;2018-04-16 23:34:42:684
-4.178;-8.869;0.238;-4.457;-8.71;0.672;0.279;-0.16;-0.434;0.044;-0.424;0.013;3.7;-3.9;27.2;49.8;1934;2018-04-16 23:34:42:695
-4.028;-8.894;0.451;-4.452;-8.71;0.698;0.423;-0.184;-0.247;-0.006;-0.189;0.017;3.7;-3.9;27.2;49.8;1943;2018-04-16 23:34:42:704
-3.874;-8.946;0.569;-4.452;-8.71;0.698;0.423;-0.184;-0.247;-0.079;0.209;0.006;3.8;-3.9;27.2;49.8;1953;2018-04-16 23:34:42:714
-3.874;-8.946;0.569;-4.45;-8.714;0.663;0.613;-0.255;-0.073;-0.079;0.209;0.006;3.8;-3.9;27.2;49.8;1964;2018-04-16 23:34:42:725
-3.789;-8.952;0.645;-4.45;-8.714;0.663;0.613;-0.255;-0.073;-0.116;0.534;-0.007;4.0;-3.9;27.2;49.8;1973;2018-04-16 23:34:42:734
-3.737;-8.926;0.725;-4.449;-8.719;0.589;0.695;-0.218;0.122;-0.117;0.687;-0.016;4.0;-3.9;27.2;49.8;1983;2018-04-16 23:34:42:744
-3.737;-8.926;0.725;-4.449;-8.719;0.589;0.695;-0.218;0.122;-0.101;0.821;-0.035;4.2;-3.8;27.3;49.8;1993;2018-04-16 23:34:42:754
-3.779;-8.916;0.766;-4.445;-8.727;0.501;0.666;-0.189;0.265;-0.081;0.866;-0.042;4.2;-3.8;27.3;49.8;2004;2018-04-16 23:34:42:765
-3.76;-8.9;0.699;-4.445;-8.727;0.501;0.666;-0.189;0.265;-0.061;0.869;-0.048;4.3;-3.8;27.5;49.8;2013;2018-04-16 23:34:42:774
-3.76;-8.9;0.699;-4.439;-8.735;0.416;0.685;-0.163;0.284;-0.035;0.844;-0.049;4.3;-3.8;27.5;49.8;2024;2018-04-16 23:34:42:785
-3.773;-8.914;0.686;-4.439;-8.735;0.416;0.685;-0.163;0.284;-0.012;0.799;-0.049;4.4;-3.8;27.4;49.8;2033;2018-04-16 23:34:42:794
-3.759;-8.924;0.649;-4.43;-8.742;0.347;0.667;-0.193;0.321;0.006;0.743;-0.053;4.4;-3.8;27.4;49.8;2043;2018-04-16 23:34:42:804
-3.759;-8.924;0.649;-4.43;-8.742;0.347;0.667;-0.193;0.321;0.012;0.673;-0.053;4.5;-3.9;27.4;50.1;2053;2018-04-16 23:34:42:814
-3.795;-8.942;0.552;-4.419;-8.75;0.292;0.624;-0.193;0.259;0.012;0.673;-0.053;4.5;-3.9;27.4;50.1;2064;2018-04-16 23:34:42:825
-3.85;-8.995;0.448;-4.419;-8.75;0.292;0.624;-0.193;0.259;0.012;0.544;-0.049;4.7;-3.9;27.5;50.1;2074;2018-04-16 23:34:42:835
-3.85;-8.995;0.448;-4.408;-8.756;0.254;0.535;-0.229;0.191;0.012;0.431;-0.042;4.7;-3.9;27.5;50.1;2084;2018-04-16 23:34:42:845
-3.909;-9.005;0.451;-4.408;-8.756;0.254;0.535;-0.229;0.191;0.011;0.241;-0.027;4.7;-3.9;27.5;50.1;2094;2018-04-16 23:34:42:855
-3.967;-8.978;0.521;-4.399;-8.761;0.238;0.443;-0.229;0.247;0.016;0.11;-0.021;4.7;-3.9;27.5;50.1;2104;2018-04-16 23:34:42:865
-3.967;-8.978;0.521;-4.399;-8.761;0.238;0.443;-0.229;0.247;0.016;0.11;-0.021;4.8;-3.9;27.5;50.1;2113;2018-04-16 23:34:42:874
-3.961;-8.927;0.6;-4.392;-8.765;0.246;0.431;-0.162;0.354;0.028;-0.056;-0.015;4.8;-3.9;27.5;50.1;2123;2018-04-16 23:34:42:884
-3.974;-8.904;0.627;-4.392;-8.765;0.246;0.431;-0.162;0.354;0.035;-0.176;-0.001;4.8;-3.9;27.4;50.1;2134;2018-04-16 23:34:42:895
-3.974;-8.904;0.627;-4.387;-8.766;0.271;0.439;-0.135;0.346;0.034;-0.23;0.005;4.8;-3.9;27.4;50.1;2143;2018-04-16 23:34:42:904
-3.931;-8.923;0.583;-4.387;-8.766;0.271;0.439;-0.135;0.346;0.024;-0.307;0.021;4.8;-3.9;27.4;50.1;2154;2018-04-16 23:34:42:915
-3.931;-8.923;0.583;-4.384;-8.767;0.304;0.46;-0.185;0.215;0.024;-0.307;0.021;4.8;-3.9;27.4;50.1;2164;2018-04-16 23:34:42:925
-3.91;-8.96;0.504;-4.384;-8.767;0.304;0.46;-0.185;0.215;0.023;-0.359;0.026;4.8;-3.9;27.5;50.1;2174;2018-04-16 23:34:42:935
-3.91;-8.96;0.504;-4.383;-8.767;0.32;0.483;-0.209;0.181;0.023;-0.359;0.026;4.8;-3.9;27.5;50.1;2183;2018-04-16 23:34:42:944
-3.859;-8.99;0.488;-4.381;-8.766;0.366;0.522;-0.224;0.122;0.026;-0.505;0.043;4.7;-3.9;27.6;50.1;2193;2018-04-16 23:34:42:954
-3.818;-9.03;0.506;-4.381;-8.766;0.366;0.522;-0.224;0.122;0.033;-0.544;0.045;4.7;-3.9;27.6;50.1;2203;2018-04-16 23:34:42:964
-3.818;-9.03;0.506;-4.379;-8.765;0.421;0.561;-0.265;0.085;0.037;-0.558;0.042;4.6;-3.9;27.5;50.1;2213;2018-04-16 23:34:42:974
-3.813;-9.082;0.549;-4.379;-8.765;0.421;0.561;-0.265;0.085;0.044;-0.55;0.037;4.6;-3.9;27.5;50.1;2223;2018-04-16 23:34:42:984
-3.757;-9.001;0.602;-4.374;-8.764;0.476;0.602;-0.281;0.108;0.043;-0.478;0.028;4.6;-3.8;27.5;50.1;2233;2018-04-16 23:34:42:994
-3.757;-9.001;0.602;-4.374;-8.764;0.476;0.602;-0.281;0.108;0.034;-0.387;0.017;4.6;-3.8;27.5;50.1;2243;2018-04-16 23:34:43:004
-3.736;-8.94;0.595;-4.367;-8.765;0.517;0.631;-0.175;0.077;0.028;-0.279;0.007;4.5;-3.8;27.6;50.1;2254;2018-04-16 23:34:43:015
-3.767;-8.952;0.571;-4.367;-8.765;0.517;0.631;-0.175;0.077;0.018;-0.155;-0.001;4.5;-3.8;27.6;50.1;2264;2018-04-16 23:34:43:025
-3.767;-8.952;0.571;-4.36;-8.768;0.535;0.577;-0.188;0.033;0.005;-0.031;-0.006;4.5;-3.8;27.7;50.1;2274;2018-04-16 23:34:43:035
-3.83;-8.987;0.591;-4.36;-8.768;0.535;0.577;-0.188;0.033;0.005;-0.031;-0.006;4.5;-3.8;27.7;50.1;2284;2018-04-16 23:34:43:045
-3.905;-9.021;0.6;-4.354;-8.771;0.528;0.48;-0.231;0.069;0.001;0.144;-0.012;4.4;-3.8;27.6;50.1;2293;2018-04-16 23:34:43:054
-3.905;-9.021;0.6;-4.354;-8.771;0.528;0.48;-0.231;0.069;0.001;0.246;-0.018;4.4;-3.8;27.6;50.1;2303;2018-04-16 23:34:43:064
-3.974;-9.042;0.636;-4.349;-8.775;0.505;0.375;-0.267;0.131;0.012;0.378;-0.016;4.4;-3.8;27.5;50.1;2313;2018-04-16 23:34:43:074
-3.881;-8.838;0.599;-4.349;-8.775;0.505;0.375;-0.267;0.131;0.015;0.448;-0.02;4.4;-3.8;27.5;50.1;2323;2018-04-16 23:34:43:084
-3.881;-8.838;0.599;-4.346;-8.778;0.47;0.498;-0.016;0.107;0.021;0.495;-0.021;4.5;-3.7;27.6;50.1;2333;2018-04-16 23:34:43:094
-3.853;-8.778;0.573;-4.346;-8.778;0.47;0.498;-0.016;0.107;0.018;0.518;-0.017;4.5;-3.7;27.6;50.1;2343;2018-04-16 23:34:43:104
-3.873;-8.88;0.618;-4.344;-8.781;0.43;0.466;-0.058;0.19;0.017;0.53;-0.009;4.5;-3.7;27.6;50.1;2353;2018-04-16 23:34:43:114
-3.873;-8.88;0.618;-4.344;-8.781;0.43;0.466;-0.058;0.19;0.012;0.527;-0.006;4.5;-3.7;27.6;50.1;2363;2018-04-16 23:34:43:124
-3.891;-8.936;0.605;-4.344;-8.784;0.389;0.453;-0.153;0.215;0.011;0.511;0.0;4.5;-3.7;27.6;50.1;2373;2018-04-16 23:34:43:134
-3.868;-8.929;0.575;-4.344;-8.784;0.367;0.476;-0.145;0.207;0.011;0.511;0.0;4.5;-3.7;27.6;50.1;2383;2018-04-16 23:34:43:144
-3.808;-8.951;0.521;-4.344;-8.784;0.367;0.476;-0.145;0.207;0.007;0.45;0.013;4.5;-3.7;27.6;50.68;2393;2018-04-16 23:34:43:154
-3.808;-8.951;0.521;-4.345;-8.785;0.335;0.545;-0.189;0.163;0.009;0.382;0.021;4.5;-3.7;27.6;50.68;2403;2018-04-16 23:34:43:164
-3.795;-9.038;0.498;-4.345;-8.785;0.335;0.545;-0.189;0.163;0.012;0.253;0.026;4.6;-3.8;27.5;50.68;2413;2018-04-16 23:34:43:174
-3.774;-9.064;0.486;-4.345;-8.786;0.317;0.571;-0.279;0.169;0.012;0.253;0.026;4.6;-3.8;27.5;50.68;2423;2018-04-16 23:34:43:184
-3.704;-9.068;0.487;-4.345;-8.786;0.317;0.571;-0.279;0.169;0.022;0.103;0.028;4.6;-3.7;27.5;50.68;2434;2018-04-16 23:34:43:195
-3.704;-9.068;0.487;-4.344;-8.786;0.32;0.658;-0.281;0.161;0.033;-0.001;0.027;4.5;-3.8;27.5;50.68;2444;2018-04-16 23:34:43:205
-3.652;-9.11;0.478;-4.344;-8.786;0.32;0.658;-0.281;0.161;0.043;-0.193;0.021;4.5;-3.8;27.5;50.68;2454;2018-04-16 23:34:43:215
-3.634;-9.148;0.492;-4.34;-8.787;0.342;0.705;-0.361;0.15;0.039;-0.268;0.016;4.5;-3.8;27.4;50.68;2464;2018-04-16 23:34:43:225
-3.62;-9.143;0.5;-4.34;-8.787;0.342;0.705;-0.361;0.15;0.031;-0.321;0.011;4.5;-3.8;27.4;50.68;2473;2018-04-16 23:34:43:234
-3.62;-9.143;0.5;-4.333;-8.79;0.376;0.701;-0.342;0.131;0.016;-0.363;0.01;4.5;-3.8;27.5;50.68;2483;2018-04-16 23:34:43:244
-3.67;-9.08;0.5;-4.333;-8.79;0.376;0.701;-0.342;0.131;0.016;-0.363;0.01;4.5;-3.8;27.5;50.68;2493;2018-04-16 23:34:43:254
-3.74;-9.019;0.466;-4.324;-8.792;0.413;0.585;-0.227;0.053;0.009;-0.408;0.004;4.4;-3.8;27.5;50.68;2504;2018-04-16 23:34:43:265
-3.898;-8.951;0.411;-4.324;-8.792;0.413;0.585;-0.227;0.053;0.015;-0.467;0.0;4.4;-3.8;27.5;50.68;2514;2018-04-16 23:34:43:275
-3.898;-8.951;0.411;-4.317;-8.794;0.455;0.394;-0.174;-0.063;0.015;-0.467;0.0;4.4;-3.8;27.4;50.68;2524;2018-04-16 23:34:43:285
-4.023;-8.958;0.411;-4.317;-8.794;0.455;0.394;-0.174;-0.063;0.044;-0.518;0.004;4.4;-3.8;27.4;50.68;2534;2018-04-16 23:34:43:295
-4.065;-8.929;0.447;-4.31;-8.794;0.508;0.25;-0.158;-0.069;0.06;-0.516;0.007;4.4;-3.9;27.4;50.68;2544;2018-04-16 23:34:43:305
-4.065;-8.929;0.447;-4.31;-8.794;0.508;0.25;-0.158;-0.069;0.06;-0.434;0.016;4.4;-3.9;27.4;50.68;2554;2018-04-16 23:34:43:315
-3.983;-8.9;0.485;-4.305;-8.794;0.555;0.322;-0.107;-0.07;0.04;-0.323;0.022;4.3;-3.9;27.3;50.68;2564;2018-04-16 23:34:43:325
-3.983;-8.9;0.485;-4.305;-8.794;0.555;0.322;-0.107;-0.07;0.009;-0.182;0.021;4.3;-3.9;27.3;50.68;2575;2018-04-16 23:34:43:336
-3.858;-8.9;0.491;-4.305;-8.794;0.555;0.322;-0.107;-0.07;0.009;-0.182;0.021;4.3;-3.9;27.3;50.68;2583;2018-04-16 23:34:43:344
-3.832;-8.92;0.51;-4.303;-8.794;0.57;0.471;-0.126;-0.06;-0.005;-0.109;0.022;4.3;-3.9;27.4;50.68;2593;2018-04-16 23:34:43:354
-3.748;-9.019;0.687;-4.303;-8.794;0.57;0.471;-0.126;-0.06;-0.062;0.184;0.016;4.3;-3.9;27.5;50.68;2603;2018-04-16 23:34:43:364
-3.748;-9.019;0.687;-4.301;-8.797;0.534;0.561;-0.233;0.166;-0.072;0.348;0.001;4.3;-3.9;27.5;50.68;2614;2018-04-16 23:34:43:375
-3.724;-9.002;0.68;-4.301;-8.797;0.534;0.561;-0.233;0.166;-0.072;0.348;0.001;4.3;-3.9;27.5;50.68;2623;2018-04-16 23:34:43:384
-3.716;-8.975;0.613;-4.299;-8.8;0.49;0.581;-0.183;0.145;-0.056;0.426;-0.009;4.3;-3.9;27.5;50.68;2633;2018-04-16 23:34:43:394
-3.716;-8.975;0.613;-4.297;-8.803;0.466;0.578;-0.173;0.156;-0.038;0.431;-0.016;4.3;-3.9;27.5;50.68;2643;2018-04-16 23:34:43:404
-3.735;-8.976;0.62;-4.297;-8.803;0.466;0.578;-0.173;0.156;-0.015;0.397;-0.026;4.3;-3.9;27.5;50.68;2654;2018-04-16 23:34:43:415
-3.8;-8.996;0.63;-4.291;-8.807;0.432;0.514;-0.177;0.211;-0.007;0.368;-0.029;4.2;-3.9;27.6;50.68;2664;2018-04-16 23:34:43:425
-3.8;-8.996;0.63;-4.287;-8.81;0.419;0.46;-0.185;0.21;-0.007;0.368;-0.029;4.2;-3.9;27.6;50.68;2674;2018-04-16 23:34:43:435
-3.894;-8.991;0.626;-4.287;-8.81;0.419;0.46;-0.185;0.21;-0.005;0.32;-0.032;4.3;-3.9;27.5;50.68;2683;2018-04-16 23:34:43:444
-4.016;-9.003;0.551;-4.281;-8.814;0.394;0.309;-0.199;0.191;-0.005;0.25;-0.024;4.3;-3.9;27.5;50.68;2694;2018-04-16 23:34:43:455
-4.016;-9.003;0.551;-4.278;-8.816;0.384;0.243;-0.183;0.161;-0.005;0.25;-0.024;4.2;-3.9;27.5;50.68;2703;2018-04-16 23:34:43:464
-4.047;-8.969;0.535;-4.278;-8.816;0.384;0.243;-0.183;0.161;-0.001;0.145;-0.011;4.2;-3.9;27.5;50.59;2714;2018-04-16 23:34:43:475
-4.053;-8.914;0.527;-4.276;-8.817;0.377;0.221;-0.117;0.118;0.006;0.061;-0.001;4.2;-3.9;27.5;50.59;2723;2018-04-16 23:34:43:484
-4.053;-8.914;0.527;-4.276;-8.817;0.377;0.221;-0.117;0.118;0.01;-0.026;0.01;4.2;-3.9;27.5;50.59;2733;2018-04-16 23:34:43:494
-4.028;-8.894;0.62;-4.275;-8.817;0.387;0.247;-0.077;0.233;0.012;-0.103;0.015;4.3;-3.9;27.5;50.59;2744;2018-04-16 23:34:43:505
-4.028;-8.894;0.62;-4.275;-8.817;0.387;0.247;-0.077;0.233;0.007;-0.166;0.021;4.3;-3.9;27.5;50.59;2753;2018-04-16 23:34:43:514
-3.916;-8.891;0.646;-4.275;-8.817;0.405;0.359;-0.074;0.241;0.007;-0.166;0.021;4.3;-3.8;27.5;50.59;2764;2018-04-16 23:34:43:525
-3.804;-8.91;0.522;-4.275;-8.817;0.405;0.359;-0.074;0.241;0.009;-0.189;0.022;4.3;-3.8;27.5;50.59;2773;2018-04-16 23:34:43:534
-3.804;-8.91;0.522;-4.273;-8.817;0.426;0.484;-0.101;0.07;0.007;-0.222;0.024;4.4;-3.8;27.5;50.59;2783;2018-04-16 23:34:43:544
-3.766;-8.964;0.461;-4.273;-8.817;0.426;0.484;-0.101;0.07;0.018;-0.292;0.023;4.4;-3.8;27.5;50.59;2794;2018-04-16 23:34:43:555
-3.759;-9.02;0.485;-4.269;-8.817;0.453;0.51;-0.203;0.031;0.021;-0.323;0.02;4.4;-3.8;27.5;50.59;2804;2018-04-16 23:34:43:565
-3.759;-9.02;0.485;-4.269;-8.817;0.453;0.51;-0.203;0.031;0.021;-0.323;0.02;4.4;-3.8;27.5;50.59;2814;2018-04-16 23:34:43:575
-3.804;-9.087;0.588;-4.264;-8.818;0.486;0.452;-0.311;0.12;0.022;-0.325;0.013;4.4;-3.8;27.6;50.59;2824;2018-04-16 23:34:43:585
-3.856;-9.102;0.625;-4.264;-8.818;0.486;0.452;-0.311;0.12;0.016;-0.254;0.007;4.5;-3.7;27.6;50.59;2833;2018-04-16 23:34:43:594
-3.856;-9.102;0.625;-4.258;-8.819;0.511;0.403;-0.275;0.116;0.016;-0.254;0.007;4.5;-3.7;27.6;50.59;2844;2018-04-16 23:34:43:605
-3.882;-9.055;0.637;-4.258;-8.819;0.511;0.403;-0.275;0.116;0.012;-0.169;0.004;4.5;-3.7;27.7;50.59;2853;2018-04-16 23:34:43:614
-3.922;-8.979;0.645;-4.254;-8.82;0.525;0.334;-0.199;0.131;0.011;-0.1;0.005;4.5;-3.7;27.7;50.59;2864;2018-04-16 23:34:43:625
-3.922;-8.979;0.645;-4.254;-8.82;0.525;0.334;-0.199;0.131;0.005;0.016;0.002;4.5;-3.6;27.7;50.59;2874;2018-04-16 23:34:43:635
-3.942;-8.874;0.597;-4.252;-8.821;0.525;0.31;-0.053;0.072;0.0;0.077;0.005;4.5;-3.6;27.7;50.59;2883;2018-04-16 23:34:43:644
-3.943;-8.854;0.549;-4.252;-8.821;0.525;0.31;-0.053;0.072;-0.006;0.119;0.009;4.4;-3.7;27.7;50.59;2894;2018-04-16 23:34:43:655
-3.943;-8.854;0.549;-4.251;-8.822;0.515;0.309;-0.03;0.023;-0.006;0.119;0.009;4.4;-3.7;27.7;50.59;2903;2018-04-16 23:34:43:664
-3.947;-8.877;0.587;-4.251;-8.822;0.515;0.309;-0.03;0.023;-0.009;0.145;0.009;4.4;-3.7;27.7;50.59;2914;2018-04-16 23:34:43:675
-3.915;-8.932;0.668;-4.252;-8.823;0.5;0.337;-0.109;0.168;-0.012;0.17;0.012;4.4;-3.7;27.7;50.59;2924;2018-04-16 23:34:43:685
-3.801;-8.97;0.716;-4.252;-8.823;0.5;0.337;-0.109;0.168;-0.024;0.231;0.011;4.4;-3.7;27.7;50.59;2933;2018-04-16 23:34:43:694
-3.801;-8.97;0.716;-4.252;-8.824;0.478;0.496;-0.143;0.222;-0.038;0.271;0.007;4.4;-3.7;27.7;50.59;2944;2018-04-16 23:34:43:705
-3.683;-8.967;0.656;-4.252;-8.824;0.478;0.496;-0.143;0.222;-0.044;0.287;0.002;4.4;-3.7;27.6;50.59;2953;2018-04-16 23:34:43:714
-3.636;-9.0;0.657;-4.249;-8.827;0.448;0.595;-0.157;0.193;-0.044;0.287;0.002;4.4;-3.7;27.6;50.59;2963;2018-04-16 23:34:43:724
-3.636;-9.0;0.657;-4.249;-8.827;0.448;0.595;-0.157;0.193;-0.039;0.26;-0.01;4.4;-3.7;27.6;50.59;2973;2018-04-16 23:34:43:734
-3.643;-9.023;0.743;-4.243;-8.831;0.424;0.6;-0.191;0.319;-0.015;0.215;-0.024;4.4;-3.7;27.6;50.59;2983;2018-04-16 23:34:43:744
-3.643;-9.023;0.743;-4.243;-8.831;0.424;0.6;-0.191;0.319;-0.015;0.215;-0.024;4.4;-3.7;27.6;50.59;2993;2018-04-16 23:34:43:754
-3.757;-8.93;0.734;-4.235;-8.836;0.409;0.478;-0.095;0.324;0.005;0.197;-0.029;4.4;-3.7;27.6;50.59;3003;2018-04-16 23:34:43:764
-3.757;-8.93;0.734;-4.235;-8.836;0.409;0.478;-0.095;0.324;0.018;0.162;-0.031;4.4;-3.7;27.5;50.59;3013;2018-04-16 23:34:43:774
-3.968;-8.886;0.625;-4.228;-8.839;0.405;0.259;-0.047;0.22;0.035;0.12;-0.028;4.4;-3.7;27.5;50.59;3023;2018-04-16 23:34:43:784
-3.968;-8.886;0.625;-4.228;-8.839;0.405;0.259;-0.047;0.22;0.051;0.001;-0.009;4.4;-3.6;27.6;50.68;3033;2018-04-16 23:34:43:794
-4.122;-8.882;0.545;-4.225;-8.84;0.416;0.103;-0.042;0.129;0.054;-0.059;-0.001;4.4;-3.6;27.6;50.68;3043;2018-04-16 23:34:43:804
-4.16;-8.874;0.499;-4.225;-8.84;0.416;0.103;-0.042;0.129;0.048;-0.11;0.012;4.4;-3.6;27.6;50.68;3054;2018-04-16 23:34:43:815
-4.16;-8.874;0.499;-4.225;-8.839;0.435;0.08;-0.033;0.051;0.04;-0.161;0.027;4.4;-3.6;27.6;50.68;3064;2018-04-16 23:34:43:825
-4.086;-8.869;0.514;-4.225;-8.839;0.435;0.08;-0.033;0.051;0.033;-0.199;0.039;4.4;-3.6;27.6;50.68;3074;2018-04-16 23:34:43:835
-3.911;-8.874;0.59;-4.229;-8.836;0.457;0.248;-0.019;0.094;0.033;-0.199;0.039;4.4;-3.6;27.6;50.68;3083;2018-04-16 23:34:43:844
-3.911;-8.874;0.59;-4.229;-8.836;0.457;0.248;-0.019;0.094;0.009;-0.21;0.049;4.3;-3.6;27.7;50.68;3093;2018-04-16 23:34:43:854
-3.779;-8.936;0.668;-4.232;-8.834;0.476;0.453;-0.103;0.192;-0.01;-0.193;0.051;4.4;-3.6;27.7;50.68;3104;2018-04-16 23:34:43:865
-3.779;-8.936;0.668;-4.232;-8.834;0.476;0.453;-0.103;0.192;-0.024;-0.162;0.045;4.4;-3.6;27.7;50.68;3113;2018-04-16 23:34:43:874
-3.709;-9.029;0.719;-4.233;-8.832;0.485;0.525;-0.196;0.234;-0.024;-0.162;0.045;4.4;-3.7;27.6;50.68;3123;2018-04-16 23:34:43:884
-3.701;-9.049;0.687;-4.233;-8.832;0.485;0.525;-0.196;0.234;-0.022;-0.106;0.032;4.4;-3.7;27.6;50.68;3134;2018-04-16 23:34:43:895
-3.701;-9.049;0.687;-4.232;-8.833;0.493;0.522;-0.196;0.179;-0.012;-0.095;0.024;4.3;-3.7;27.6;50.68;3143;2018-04-16 23:34:43:904
-3.789;-9.003;0.662;-4.232;-8.833;0.493;0.522;-0.196;0.179;0.024;-0.106;0.009;4.3;-3.7;27.6;50.68;3154;2018-04-16 23:34:43:915
-3.934;-8.933;0.67;-4.228;-8.834;0.508;0.333;-0.133;0.186;0.05;-0.115;-0.001;4.3;-3.7;27.6;50.68;3163;2018-04-16 23:34:43:924
-3.934;-8.933;0.67;-4.228;-8.834;0.508;0.333;-0.133;0.186;0.081;-0.117;-0.001;4.3;-3.7;27.6;50.68;3173;2018-04-16 23:34:43:934
-4.041;-8.914;0.619;-4.224;-8.834;0.533;0.183;-0.08;0.086;0.101;-0.111;-0.001;4.3;-3.7;27.6;50.68;3184;2018-04-16 23:34:43:945
-4.076;-8.915;0.573;-4.224;-8.834;0.533;0.183;-0.08;0.086;0.103;-0.095;0.002;4.3;-3.7;27.6;50.68;3193;2018-04-16 23:34:43:954
-4.076;-8.915;0.573;-4.223;-8.833;0.558;0.15;-0.084;0.007;0.103;-0.095;0.002;4.3;-3.7;27.7;50.68;3204;2018-04-16 23:34:43:965
-4.025;-8.94;0.537;-4.223;-8.833;0.558;0.15;-0.084;0.007;0.078;-0.049;0.016;4.3;-3.7;27.7;50.68;3213;2018-04-16 23:34:43:974
-3.912;-8.978;0.458;-4.223;-8.832;0.572;0.247;-0.124;-0.068;0.054;-0.012;0.02;4.4;-3.6;27.7;50.68;3223;2018-04-16 23:34:43:984
-3.912;-8.978;0.458;-4.223;-8.832;0.572;0.247;-0.124;-0.068;0.015;0.016;0.022;4.4;-3.6;27.7;50.68;3234;2018-04-16 23:34:43:995
-3.87;-8.936;0.485;-4.224;-8.832;0.572;0.354;-0.104;-0.087;0.015;0.016;0.022;4.3;-3.6;27.8;50.68;3243;2018-04-16 23:34:44:004
-3.828;-8.877;0.566;-4.224;-8.832;0.572;0.354;-0.104;-0.087;-0.001;0.023;0.018;4.3;-3.6;27.8;50.68;3254;2018-04-16 23:34:44:015
-3.828;-8.877;0.566;-4.222;-8.833;0.57;0.394;-0.05;0.021;-0.001;0.024;0.016;4.3;-3.6;27.7;50.68;3264;2018-04-16 23:34:44:025
-3.869;-8.971;0.655;-4.222;-8.833;0.57;0.394;-0.05;0.021;0.029;0.037;0.012;4.3;-3.6;27.7;50.68;3273;2018-04-16 23:34:44:034
-3.862;-9.106;0.765;-4.22;-8.834;0.572;0.346;-0.228;0.177;0.029;0.037;0.012;4.3;-3.6;27.8;50.68;3284;2018-04-16 23:34:44:045
-3.862;-9.106;0.765;-4.22;-8.834;0.572;0.346;-0.228;0.177;0.05;0.06;0.006;4.3;-3.6;27.8;50.68;3293;2018-04-16 23:34:44:054
-3.791;-9.104;0.727;-4.217;-8.835;0.578;0.426;-0.269;0.149;0.07;0.09;0.001;4.3;-3.6;27.8;50.68;3303;2018-04-16 23:34:44:064
-3.679;-8.987;0.687;-4.217;-8.835;0.578;0.426;-0.269;0.149;0.084;0.13;-0.007;4.3;-3.6;27.8;50.68;3314;2018-04-16 23:34:44:075
-3.679;-8.987;0.687;-4.212;-8.837;0.58;0.548;-0.119;0.099;0.072;0.156;-0.016;4.4;-3.6;27.8;50.68;3324;2018-04-16 23:34:44:085
-3.718;-8.935;0.693;-4.212;-8.837;0.58;0.548;-0.119;0.099;0.048;0.205;-0.024;4.4;-3.6;27.8;50.68;3333;2018-04-16 23:34:44:094
-3.881;-8.89;0.684;-4.205;-8.841;0.573;0.389;-0.079;0.124;0.031;0.226;-0.032;4.4;-3.7;27.8;50.68;3343;2018-04-16 23:34:44:104
-3.881;-8.89;0.684;-4.205;-8.841;0.573;0.389;-0.079;0.124;0.031;0.226;-0.032;4.4;-3.7;27.8;50.62;3354;2018-04-16 23:34:44:115
-4.026;-8.873;0.658;-4.2;-8.844;0.56;0.174;-0.029;0.099;0.024;0.208;-0.032;4.4;-3.6;27.8;50.62;3363;2018-04-16 23:34:44:124
-4.085;-8.886;0.615;-4.2;-8.844;0.56;0.174;-0.029;0.099;0.035;0.139;-0.024;4.4;-3.6;27.8;50.62;3374;2018-04-16 23:34:44:135
-4.085;-8.886;0.615;-4.196;-8.846;0.555;0.112;-0.064;0.059;0.035;0.139;-0.024;4.4;-3.6;27.7;50.62;3383;2018-04-16 23:34:44:144
-4.088;-8.96;0.59;-4.196;-8.846;0.555;0.112;-0.064;0.059;0.042;0.055;-0.01;4.4;-3.6;27.7;50.62;3393;2018-04-16 23:34:44:154
-3.961;-8.964;0.582;-4.194;-8.847;0.56;0.171;-0.118;0.011;0.034;-0.002;0.0;4.4;-3.6;27.7;50.62;3403;2018-04-16 23:34:44:164
-3.961;-8.964;0.582;-4.194;-8.847;0.56;0.171;-0.118;0.011;0.022;-0.075;0.006;4.4;-3.6;27.7;50.62;3413;2018-04-16 23:34:44:174
-3.892;-8.938;0.633;-4.192;-8.847;0.57;0.3;-0.09;0.064;0.001;-0.098;0.011;4.4;-3.6;27.7;50.62;3423;2018-04-16 23:34:44:184
-3.853;-8.935;0.652;-4.192;-8.847;0.57;0.3;-0.09;0.064;-0.013;-0.108;0.009;4.4;-3.6;27.7;50.62;3433;2018-04-16 23:34:44:194
-3.853;-8.935;0.652;-4.189;-8.848;0.577;0.315;-0.086;0.077;-0.026;-0.121;0.005;4.3;-3.6;27.6;50.62;3443;2018-04-16 23:34:44:204
-3.9;-8.935;0.666;-4.189;-8.848;0.577;0.315;-0.086;0.077;-0.032;-0.133;0.006;4.3;-3.6;27.6;50.62;3453;2018-04-16 23:34:44:214
-3.959;-8.88;0.687;-4.186;-8.849;0.584;0.231;-0.069;0.098;-0.032;-0.133;0.006;4.3;-3.6;27.6;50.62;3463;2018-04-16 23:34:44:224
-3.959;-8.88;0.687;-4.186;-8.849;0.584;0.231;-0.069;0.098;-0.024;-0.153;0.009;4.3;-3.6;27.6;50.62;3473;2018-04-16 23:34:44:234
-4.014;-8.896;0.723;-4.184;-8.849;0.595;0.17;-0.046;0.128;-0.013;-0.162;0.007;4.3;-3.5;27.6;50.62;3483;2018-04-16 23:34:44:244
-4.034;-8.93;0.727;-4.184;-8.849;0.595;0.17;-0.046;0.128;0.0;-0.155;0.011;4.3;-3.5;27.6;50.62;3493;2018-04-16 23:34:44:254
-4.034;-8.93;0.727;-4.183;-8.849;0.608;0.144;-0.103;0.119;-0.002;-0.132;0.017;4.3;-3.5;27.5;50.62;3503;2018-04-16 23:34:44:264
-3.998;-8.961;0.706;-4.183;-8.849;0.608;0.144;-0.103;0.119;-0.001;-0.104;0.018;4.3;-3.5;27.5;50.62;3513;2018-04-16 23:34:44:274
-3.953;-8.999;0.654;-4.183;-8.848;0.617;0.23;-0.15;0.037;-0.011;-0.087;0.023;4.3;-3.5;27.4;50.62;3523;2018-04-16 23:34:44:284
-3.901;-9.025;0.62;-4.183;-8.848;0.617;0.23;-0.15;0.037;-0.011;-0.076;0.022;4.3;-3.5;27.4;50.62;3533;2018-04-16 23:34:44:294
-3.901;-9.025;0.62;-4.183;-8.848;0.621;0.295;-0.179;0.016;-0.011;-0.076;0.022;4.3;-3.5;27.3;50.62;3543;2018-04-16 23:34:44:304
-3.869;-9.009;0.676;-4.183;-8.848;0.621;0.295;-0.179;0.016;-0.018;-0.059;0.016;4.3;-3.5;27.3;50.62;3553;2018-04-16 23:34:44:314
-3.882;-8.953;0.709;-4.181;-8.849;0.622;0.299;-0.104;0.087;-0.02;-0.039;0.007;4.3;-3.5;27.3;50.62;3563;2018-04-16 23:34:44:324
-3.976;-8.914;0.741;-4.181;-8.849;0.622;0.299;-0.104;0.087;-0.02;0.011;-0.002;4.3;-3.5;27.3;50.62;3574;2018-04-16 23:34:44:335
-3.976;-8.914;0.741;-4.179;-8.85;0.619;0.141;-0.079;0.129;-0.02;0.011;-0.002;4.3;-3.5;27.3;50.62;3583;2018-04-16 23:34:44:344
-4.17;-8.963;0.778;-4.179;-8.85;0.619;0.141;-0.079;0.129;-0.009;0.035;-0.01;4.3;-3.5;27.3;50.62;3593;2018-04-16 23:34:44:354
-4.266;-8.926;0.802;-4.178;-8.851;0.616;-0.074;-0.112;0.2;-0.002;0.055;-0.006;4.3;-3.5;27.3;50.62;3603;2018-04-16 23:34:44:364
-4.266;-8.926;0.802;-4.178;-8.851;0.616;-0.074;-0.112;0.2;-0.011;0.092;0.0;4.3;-3.5;27.3;50.62;3613;2018-04-16 23:34:44:374
-4.323;-8.885;0.69;-4.18;-8.85;0.608;-0.143;-0.034;0.082;-0.011;0.092;0.0;4.3;-3.5;27.3;50.62;3624;2018-04-16 23:34:44:385
-4.498;-8.934;0.408;-4.18;-8.85;0.608;-0.143;-0.034;0.082;-0.027;0.076;0.016;4.3;-3.5;27.3;50.62;3633;2018-04-16 23:34:44:394
-4.498;-8.934;0.408;-4.186;-8.848;0.599;-0.358;-0.087;-0.236;-0.027;-0.01;0.031;4.3;-3.5;27.2;50.62;3643;2018-04-16 23:34:44:404
-4.594;-8.926;0.274;-4.186;-8.848;0.599;-0.358;-0.087;-0.236;-0.023;-0.198;0.061;4.3;-3.5;27.2;50.62;3654;2018-04-16 23:34:44:415
-4.556;-8.952;0.175;-4.197;-8.842;0.609;-0.382;-0.088;-0.393;-0.027;-0.334;0.078;4.2;-3.6;27.2;50.62;3664;2018-04-16 23:34:44:425
-4.556;-8.952;0.175;-4.197;-8.842;0.609;-0.382;-0.088;-0.393;-0.039;-0.459;0.092;4.2;-3.6;27.2;50.62;3673;2018-04-16 23:34:44:434
-4.442;-8.879;0.251;-4.209;-8.835;0.637;-0.234;-0.044;-0.385;-0.066;-0.538;0.094;4.3;-3.6;27.3;50.62;3684;2018-04-16 23:34:44:445
-4.442;-8.879;0.251;-4.209;-8.835;0.637;-0.234;-0.044;-0.385;-0.066;-0.538;0.094;4.3;-3.6;27.3;49.93;3694;2018-04-16 23:34:44:455
-4.254;-8.859;0.045;-4.22;-8.828;0.664;-0.035;-0.031;-0.619;-0.114;-0.622;0.105;4.3;-3.5;27.2;49.93;3704;2018-04-16 23:34:44:465
-4.076;-9.005;-0.369;-4.22;-8.828;0.664;-0.035;-0.031;-0.619;-0.128;-0.761;0.1;4.3;-3.5;27.2;49.93;3714;2018-04-16 23:34:44:475
-4.076;-9.005;-0.369;-4.225;-8.822;0.697;0.241;-0.222;-1.182;-0.12;-0.875;0.086;4.4;-3.6;27.2;49.93;3723;2018-04-16 23:34:44:484
-3.658;-9.019;-0.357;-4.225;-8.822;0.697;0.241;-0.222;-1.182;-0.12;-0.875;0.086;4.4;-3.6;27.2;49.93;3733;2018-04-16 23:34:44:494
-3.218;-8.788;0.253;-4.217;-8.823;0.737;0.851;-0.085;-0.693;-0.151;-0.827;0.04;4.5;-3.6;27.2;49.93;3744;2018-04-16 23:34:44:505
-3.218;-8.788;0.253;-4.217;-8.823;0.737;0.851;-0.085;-0.693;-0.233;-0.375;-0.045;4.5;-3.6;27.2;49.93;3754;2018-04-16 23:34:44:515
-2.986;-8.607;0.315;-4.199;-8.833;0.723;1.213;0.226;-0.408;-0.233;-0.375;-0.045;4.7;-3.6;27.3;49.93;3764;2018-04-16 23:34:44:525
-2.986;-8.607;0.315;-4.199;-8.833;0.723;1.213;0.226;-0.408;-0.314;0.208;-0.126;4.7;-3.6;27.3;49.93;3774;2018-04-16 23:34:44:535
-2.867;-8.766;-0.735;-4.173;-8.852;0.629;1.306;0.086;-1.364;-0.338;0.507;-0.171;4.8;-3.6;27.2;49.93;3784;2018-04-16 23:34:44:545
-2.867;-8.766;-0.735;-4.173;-8.852;0.629;1.306;0.086;-1.364;-0.338;0.507;-0.171;4.8;-3.6;27.2;49.93;3794;2018-04-16 23:34:44:555
-3.154;-9.266;-0.967;-4.131;-8.88;0.503;0.976;-0.385;-1.47;-0.307;0.611;-0.242;4.9;-3.7;27.3;49.93;3804;2018-04-16 23:34:44:565
-3.154;-9.266;-0.967;-4.131;-8.88;0.503;0.976;-0.385;-1.47;-0.307;0.611;-0.242;4.9;-3.7;27.3;49.93;3814;2018-04-16 23:34:44:575
-3.736;-9.026;0.93;-4.078;-8.909;0.405;0.342;-0.117;0.525;-0.22;0.75;-0.32;5.0;-3.8;27.3;49.93;3824;2018-04-16 23:34:44:585
-3.736;-9.026;0.93;-4.078;-8.909;0.405;0.342;-0.117;0.525;-0.162;1.137;-0.359;5.0;-3.8;27.3;49.93;3833;2018-04-16 23:34:44:594
-4.387;-8.815;0.928;-4.023;-8.938;0.295;-0.364;0.123;0.633;-0.162;1.137;-0.359;5.1;-3.8;27.3;49.93;3843;2018-04-16 23:34:44:604
-4.387;-8.815;0.928;-4.023;-8.938;0.295;-0.364;0.123;0.633;-0.162;1.179;-0.352;5.1;-3.8;27.3;49.93;3853;2018-04-16 23:34:44:614
-4.849;-8.782;0.47;-3.977;-8.962;0.176;-0.873;0.18;0.295;-0.178;1.124;-0.298;5.0;-3.9;27.3;49.93;3864;2018-04-16 23:34:44:625
-4.855;-8.72;0.087;-3.977;-8.962;0.176;-0.873;0.18;0.295;-0.166;0.67;-0.243;5.0;-3.9;27.3;49.93;3873;2018-04-16 23:34:44:634
-4.855;-8.72;0.087;-3.943;-8.979;0.094;-0.916;0.298;-0.03;-0.166;0.67;-0.243;5.0;-3.9;27.4;49.93;3884;2018-04-16 23:34:44:645
-4.847;-8.589;0.204;-3.943;-8.979;0.094;-0.916;0.298;-0.03;-0.147;0.226;-0.176;5.0;-3.9;27.4;49.93;3893;2018-04-16 23:34:44:654
-4.837;-8.489;0.402;-3.924;-8.987;0.059;-0.913;0.498;0.343;-0.16;0.044;-0.142;4.9;-4.0;27.5;49.93;3904;2018-04-16 23:34:44:665
-4.837;-8.489;0.402;-3.924;-8.987;0.059;-0.913;0.498;0.343;-0.189;-0.064;-0.1;4.9;-4.0;27.5;49.93;3914;2018-04-16 23:34:44:675
-4.946;-8.373;0.563;-3.917;-8.99;0.035;-1.029;0.618;0.528;-0.197;-0.079;-0.086;4.9;-4.1;27.6;49.93;3925;2018-04-16 23:34:44:686
-4.946;-8.373;0.563;-3.917;-8.99;0.035;-1.029;0.618;0.528;-0.203;-0.11;-0.048;4.9;-4.1;27.6;49.93;3934;2018-04-16 23:34:44:695
-5.027;-8.204;0.553;-3.921;-8.989;0.013;-1.106;0.785;0.541;-0.181;-0.138;-0.017;4.9;-4.2;27.6;49.93;3944;2018-04-16 23:34:44:705
-4.946;-8.261;0.502;-3.921;-8.989;0.013;-1.106;0.785;0.541;-0.181;-0.138;-0.017;4.9;-4.2;27.6;49.93;3953;2018-04-16 23:34:44:714
-4.946;-8.261;0.502;-3.938;-8.981;0.011;-0.975;0.637;0.504;-0.095;-0.22;0.057;4.8;-4.3;27.6;49.93;3964;2018-04-16 23:34:44:725
-4.715;-8.581;0.528;-3.938;-8.981;0.011;-0.975;0.637;0.504;0.015;-0.319;0.101;4.8;-4.3;27.6;49.93;3973;2018-04-16 23:34:44:734
-4.49;-8.817;0.559;-3.963;-8.97;0.043;-0.625;0.172;0.522;0.068;-0.352;0.115;4.7;-4.4;27.5;49.93;3984;2018-04-16 23:34:44:745
-4.49;-8.817;0.559;-3.963;-8.97;0.043;-0.625;0.172;0.522;0.101;-0.351;0.128;4.7;-4.4;27.5;49.93;3994;2018-04-16 23:34:44:755
-4.197;-8.693;0.387;-3.989;-8.958;0.092;-0.208;0.265;0.294;0.122;-0.358;0.158;4.7;-4.5;27.5;49.93;4004;2018-04-16 23:34:44:765
-3.631;-8.355;0.235;-3.989;-8.958;0.092;-0.208;0.265;0.294;0.145;-0.404;0.184;4.7;-4.5;27.5;49.66;4013;2018-04-16 23:34:44:774
-3.631;-8.355;0.235;-4.02;-8.943;0.151;0.515;0.61;0.098;0.155;-0.437;0.195;4.6;-4.5;27.6;49.66;4023;2018-04-16 23:34:44:784
-3.391;-8.452;0.389;-4.02;-8.943;0.151;0.515;0.61;0.098;0.155;-0.437;0.195;4.6;-4.5;27.6;49.66;4033;2018-04-16 23:34:44:794
-3.391;-8.452;0.389;-4.057;-8.926;0.205;0.804;0.412;0.386;0.098;-0.352;0.237;4.5;-4.6;27.6;49.66;4043;2018-04-16 23:34:44:804
-3.162;-8.592;0.589;-4.057;-8.926;0.205;0.804;0.412;0.386;-0.056;-0.099;0.297;4.5;-4.6;27.6;49.66;4054;2018-04-16 23:34:44:815
-3.002;-9.111;0.646;-4.105;-8.904;0.204;1.046;0.06;0.395;-0.056;-0.099;0.297;4.4;-4.7;27.5;49.66;4063;2018-04-16 23:34:44:824
-3.002;-9.111;0.646;-4.105;-8.904;0.204;1.046;0.06;0.395;-0.2;0.104;0.369;4.4;-4.7;27.5;49.66;4074;2018-04-16 23:34:44:835
-2.715;-9.851;0.561;-4.163;-8.878;0.159;1.448;-0.973;0.402;-0.227;0.133;0.396;4.3;-4.8;27.6;49.66;4084;2018-04-16 23:34:44:845
-2.356;-10.581;0.159;-4.163;-8.878;0.159;1.448;-0.973;0.402;-0.18;0.039;0.376;4.3;-4.8;27.6;49.66;4093;2018-04-16 23:34:44:854
-2.356;-10.581;0.159;-4.223;-8.85;0.148;1.907;-1.877;-0.049;-0.057;-0.214;0.32;4.2;-4.8;27.6;49.66;4104;2018-04-16 23:34:44:865
-2.07;-10.857;0.01;-4.223;-8.85;0.148;1.907;-1.877;-0.049;0.275;-0.937;0.189;4.2;-4.8;27.6;49.66;4114;2018-04-16 23:34:44:875
-2.07;-10.857;0.01;-4.258;-8.831;0.248;2.365;-1.842;-0.226;0.275;-0.937;0.189;4.2;-4.8;27.7;49.66;4124;2018-04-16 23:34:44:885
-1.833;-10.372;0.133;-4.258;-8.831;0.248;2.365;-1.842;-0.226;0.38;-1.206;0.094;4.2;-4.8;27.7;49.66;4133;2018-04-16 23:34:44:894
-2.069;-9.686;0.491;-4.241;-8.832;0.429;2.242;-1.017;-0.011;0.445;-1.339;-0.042;4.2;-4.9;27.7;49.66;4144;2018-04-16 23:34:44:905
-2.069;-9.686;0.491;-4.241;-8.832;0.429;2.242;-1.017;-0.011;0.53;-1.197;-0.145;4.2;-4.9;27.7;49.66;4153;2018-04-16 23:34:44:914
-2.243;-9.019;0.39;-4.187;-8.846;0.625;1.944;-0.173;-0.235;0.622;-1.034;-0.195;4.3;-5.0;27.7;49.66;4163;2018-04-16 23:34:44:924
-2.427;-8.616;0.238;-4.187;-8.846;0.625;1.944;-0.173;-0.235;0.718;-0.817;-0.225;4.3;-5.0;27.7;49.66;4174;2018-04-16 23:34:44:935
-2.427;-8.616;0.238;-4.133;-8.856;0.815;1.677;0.299;-0.609;0.718;-0.817;-0.225;4.6;-5.0;27.6;49.66;4183;2018-04-16 23:34:44:944
-2.413;-8.507;0.19;-4.133;-8.856;0.815;1.677;0.299;-0.609;0.803;-0.302;-0.239;4.6;-5.0;27.6;49.66;4193;2018-04-16 23:34:44:954
-2.413;-8.507;0.19;-4.084;-8.864;0.957;1.734;0.193;-0.704;0.803;-0.302;-0.239;4.8;-4.9;27.5;49.66;4203;2018-04-16 23:34:44:964
-2.342;-9.027;0.268;-4.084;-8.864;0.957;1.734;0.193;-0.704;0.665;0.639;-0.291;4.8;-4.9;27.5;49.66;4214;2018-04-16 23:34:44:975
-2.376;-9.313;0.415;-4.039;-8.882;0.986;1.657;-0.374;-0.65;0.533;1.041;-0.274;5.0;-4.8;27.2;49.66;4224;2018-04-16 23:34:44:985
-2.454;-9.431;0.478;-4.039;-8.882;0.986;1.657;-0.374;-0.65;0.391;1.416;-0.235;5.1;-4.8;27.2;49.66;4233;2018-04-16 23:34:44:994
-2.454;-9.431;0.478;-4.009;-8.9;0.939;1.496;-0.584;-0.507;0.391;1.416;-0.235;5.1;-4.8;27.2;49.66;4244;2018-04-16 23:34:45:005
-2.741;-9.607;0.384;-4.009;-8.9;0.939;1.496;-0.584;-0.507;0.387;1.422;-0.225;5.1;-4.8;27.2;49.66;4253;2018-04-16 23:34:45:014
-2.977;-9.561;0.605;-3.985;-8.914;0.91;1.008;-0.647;-0.305;0.486;1.201;-0.213;5.3;-4.6;27.2;49.66;4264;2018-04-16 23:34:45:025
-2.977;-9.561;0.605;-3.985;-8.914;0.91;1.008;-0.647;-0.305;0.486;1.201;-0.213;5.3;-4.6;27.2;49.66;4274;2018-04-16 23:34:45:035
-3.262;-9.23;0.79;-3.959;-8.919;0.972;0.668;-0.15;-0.23;0.721;0.827;-0.192;5.5;-4.4;27.3;49.66;4283;2018-04-16 23:34:45:044
-3.457;-8.765;0.614;-3.959;-8.919;0.972;0.668;-0.15;-0.23;0.907;0.459;-0.161;5.6;-4.2;27.3;49.66;4294;2018-04-16 23:34:45:055
-3.457;-8.765;0.614;-3.937;-8.915;1.093;0.425;0.229;-0.532;0.925;0.346;-0.134;5.6;-4.2;27.3;49.66;4303;2018-04-16 23:34:45:064
-3.576;-8.678;0.366;-3.937;-8.915;1.093;0.425;0.229;-0.532;0.925;0.346;-0.134;5.6;-3.9;27.4;49.66;4314;2018-04-16 23:34:45:075
-3.6;-8.73;0.221;-3.924;-8.903;1.229;0.324;0.172;-1.007;0.9;0.211;-0.082;5.6;-3.9;27.4;49.66;4323;2018-04-16 23:34:45:084
-3.531;-8.865;0.347;-3.924;-8.903;1.229;0.324;0.172;-1.007;0.865;0.087;-0.039;5.5;-3.6;27.3;51.07;4333;2018-04-16 23:34:45:094
-3.531;-8.865;0.347;-3.917;-8.886;1.367;0.407;-0.024;-0.898;0.854;0.062;-0.016;5.5;-3.6;27.3;51.07;4344;2018-04-16 23:34:45:105
-3.405;-9.086;0.77;-3.917;-8.886;1.367;0.407;-0.024;-0.898;0.844;0.116;-0.005;5.5;-3.4;27.3;51.07;4353;2018-04-16 23:34:45:114
-3.256;-9.275;0.772;-3.913;-8.866;1.502;0.657;-0.41;-0.73;0.844;0.116;-0.005;5.5;-3.4;27.3;51.07;4364;2018-04-16 23:34:45:125
-3.256;-9.275;0.772;-3.913;-8.866;1.502;0.657;-0.41;-0.73;0.823;0.243;-0.013;5.5;-3.0;27.4;51.07;4374;2018-04-16 23:34:45:135
-2.805;-9.567;0.867;-3.909;-8.848;1.615;1.104;-0.719;-0.749;0.788;0.28;-0.032;5.5;-2.8;27.4;51.07;4383;2018-04-16 23:34:45:144
-2.57;-9.377;1.267;-3.909;-8.848;1.615;1.104;-0.719;-0.749;0.799;0.36;-0.073;5.5;-2.8;27.4;51.07;4393;2018-04-16 23:34:45:154
-2.57;-9.377;1.267;-3.896;-8.833;1.724;1.357;-0.42;-0.565;0.799;0.36;-0.073;5.5;-2.5;27.3;51.07;4404;2018-04-16 23:34:45:165
-2.424;-8.782;0.715;-3.896;-8.833;1.724;1.357;-0.42;-0.565;0.854;0.375;-0.086;5.5;-2.5;27.3;51.07;4414;2018-04-16 23:34:45:175
-2.518;-8.304;-0.354;-3.883;-8.81;1.864;1.474;0.45;-1.819;0.975;0.159;-0.127;5.4;-2.0;27.4;51.07;4423;2018-04-16 23:34:45:184
-2.518;-8.304;-0.354;-3.883;-8.81;1.864;1.474;0.45;-1.819;1.21;-0.475;-0.15;5.4;-2.0;27.4;51.07;4433;2018-04-16 23:34:45:194
-3.324;-9.225;-0.929;-3.835;-8.778;2.098;0.51;-0.446;-3.027;1.341;-0.903;-0.123;5.3;-1.4;27.4;51.07;4444;2018-04-16 23:34:45:205
-3.506;-10.572;-0.836;-3.835;-8.778;2.098;0.51;-0.446;-3.027;1.341;-0.903;-0.123;5.3;-1.4;27.4;51.07;4454;2018-04-16 23:34:45:215
-3.506;-10.572;-0.836;-3.774;-8.726;2.405;0.423;-2.037;-3.373;1.273;-1.034;-0.068;5.2;-0.9;27.4;51.07;4463;2018-04-16 23:34:45:224
-2.759;-11.047;-1.316;-3.774;-8.726;2.405;0.423;-2.037;-3.373;0.821;-0.539;-0.073;5.2;-0.9;27.4;51.07;4474;2018-04-16 23:34:45:235
-1.828;-10.872;-0.47;-3.736;-8.693;2.579;1.621;-2.268;-3.582;0.821;-0.539;-0.073;5.0;-0.3;27.3;51.07;4484;2018-04-16 23:34:45:245
-1.828;-10.872;-0.47;-3.736;-8.693;2.579;1.621;-2.268;-3.582;0.198;0.446;-0.122;5.0;-0.3;27.3;51.07;4494;2018-04-16 23:34:45:255
-1.482;-10.66;0.427;-3.753;-8.699;2.531;2.271;-1.961;-2.104;-0.062;1.021;-0.128;4.9;0.1;27.3;51.07;4503;2018-04-16 23:34:45:264
-1.415;-10.731;0.075;-3.753;-8.699;2.531;2.271;-1.961;-2.104;-0.167;1.23;-0.147;4.9;0.1;27.3;51.07;4513;2018-04-16 23:34:45:274
-1.415;-10.731;0.075;-3.779;-8.72;2.419;2.292;-2.074;-2.366;-0.154;1.007;-0.176;4.7;0.6;27.5;51.07;4523;2018-04-16 23:34:45:284
-1.84;-11.113;0.388;-3.779;-8.72;2.419;2.292;-2.074;-2.366;-0.133;0.352;-0.211;4.7;0.6;27.5;51.07;4534;2018-04-16 23:34:45:295
-3.405;-12.403;1.186;-3.759;-8.743;2.367;1.038;-3.266;-1.237;-0.202;0.061;-0.211;4.5;1.1;27.4;51.07;4544;2018-04-16 23:34:45:305
-3.405;-12.403;1.186;-3.759;-8.743;2.367;1.038;-3.266;-1.237;-0.202;0.061;-0.211;4.5;1.1;27.4;51.07;4553;2018-04-16 23:34:45:314
-4.675;-12.574;-0.347;-3.722;-8.77;2.325;-0.952;-3.805;-2.672;-0.357;-0.297;-0.13;4.3;1.5;27.2;51.07;4564;2018-04-16 23:34:45:325
-4.675;-12.574;-0.347;-3.722;-8.77;2.325;-0.952;-3.805;-2.672;-0.464;-0.674;-0.05;4.3;1.5;27.2;51.07;4574;2018-04-16 23:34:45:335
-4.996;-11.905;-0.962;-3.681;-8.797;2.287;-1.314;-3.108;-3.25;-0.75;-0.913;0.013;4.3;2.0;27.1;51.07;4584;2018-04-16 23:34:45:345
-4.893;-11.413;0.057;-3.681;-8.797;2.287;-1.314;-3.108;-3.25;-1.002;-0.563;0.024;4.3;2.0;27.1;51.07;4593;2018-04-16 23:34:45:354
-4.893;-11.413;0.057;-3.662;-8.84;2.146;-1.195;-2.406;-2.019;-1.002;-0.563;0.024;4.2;2.3;27.1;51.07;4604;2018-04-16 23:34:45:365
-4.944;-10.851;0.166;-3.662;-8.84;2.146;-1.195;-2.406;-2.019;-1.395;0.261;0.031;4.2;2.3;27.1;51.07;4613;2018-04-16 23:34:45:374
-4.708;-10.248;0.368;-3.69;-8.898;1.839;-1.018;-1.351;-1.471;-1.644;0.652;0.067;4.2;2.6;27.0;51.07;4624;2018-04-16 23:34:45:385
-4.304;-9.674;0.763;-3.69;-8.898;1.839;-1.018;-1.351;-1.471;-1.954;0.842;0.127;4.2;2.6;27.0;51.07;4634;2018-04-16 23:34:45:395
-4.304;-9.674;0.763;-3.741;-8.952;1.427;-0.499;-0.542;-0.69;-2.11;0.776;0.156;4.1;2.9;26.9;51.07;4643;2018-04-16 23:34:45:404
-4.294;-9.252;0.589;-3.741;-8.952;1.427;-0.499;-0.542;-0.69;-2.235;0.601;0.175;4.1;2.9;26.9;52.1;4653;2018-04-16 23:34:45:414
-4.294;-9.252;0.589;-3.789;-8.992;0.977;-0.654;-0.153;-0.616;-2.235;0.601;0.175;4.1;3.0;26.9;52.1;4663;2018-04-16 23:34:45:424
-4.681;-9.203;0.217;-3.789;-8.992;0.977;-0.654;-0.153;-0.616;-2.386;0.261;0.206;4.1;3.0;26.9;52.1;4674;2018-04-16 23:34:45:435
-4.681;-9.203;0.217;-3.834;-9.011;0.528;-1.268;-0.507;0.345;-2.453;0.072;0.238;4.1;3.0;26.9;52.1;4683;2018-04-16 23:34:45:444
-5.34;-9.756;1.336;-3.834;-9.011;0.528;-1.268;-0.507;0.345;-2.437;0.138;0.393;3.9;3.0;26.9;52.1;4694;2018-04-16 23:34:45:455
-5.544;-9.998;2.01;-3.901;-8.997;0.079;-1.643;-1.001;1.931;-2.437;0.138;0.393;3.9;3.0;26.9;52.1;4703;2018-04-16 23:34:45:464
-5.698;-10.205;3.67;-3.901;-8.997;0.079;-1.643;-1.001;1.931;-2.341;0.382;0.443;3.9;3.0;26.9;52.1;4714;2018-04-16 23:34:45:475
-5.698;-10.205;3.67;-3.979;-8.955;-0.371;-1.667;-1.191;4.381;-2.18;0.739;0.443;3.8;2.7;26.8;52.1;4723;2018-04-16 23:34:45:484
-5.564;-10.032;4.657;-3.979;-8.955;-0.371;-1.667;-1.191;4.381;-1.828;1.425;0.359;3.8;2.7;26.8;52.1;4733;2018-04-16 23:34:45:494
-5.622;-10.016;4.741;-4.026;-8.905;-0.81;-1.596;-1.111;5.551;-1.828;1.425;0.359;3.7;2.2;26.8;52.1;4744;2018-04-16 23:34:45:505
-5.622;-10.016;4.741;-4.026;-8.905;-0.81;-1.596;-1.111;5.551;-1.483;2.062;0.263;3.7;2.2;26.8;52.1;4753;2018-04-16 23:34:45:514
-4.729;-10.193;1.778;-4.02;-8.859;-1.24;-0.709;-1.335;3.018;-1.365;2.23;0.176;3.2;0.8;27.0;52.1;4763;2018-04-16 23:34:45:524
-4.729;-10.193;1.778;-4.02;-8.859;-1.24;-0.709;-1.335;3.018;-1.233;2.087;0.139;3.2;0.8;27.0;52.1;4774;2018-04-16 23:34:45:535
-3.114;-10.203;-0.867;-3.985;-8.814;-1.616;0.871;-1.389;0.749;-1.12;1.815;0.105;1.8;-1.2;26.9;52.1;4784;2018-04-16 23:34:45:545
-2.556;-9.612;-0.913;-3.985;-8.814;-1.616;0.871;-1.389;0.749;-1.12;1.815;0.105;1.8;-1.2;26.9;52.1;4794;2018-04-16 23:34:45:555
-2.556;-9.612;-0.913;-3.925;-8.781;-1.912;1.311;-0.707;0.966;-0.902;1.632;0.027;0.9;-2.7;26.7;52.1;4804;2018-04-16 23:34:45:565
-2.744;-9.179;-0.776;-3.925;-8.781;-1.912;1.311;-0.707;0.966;-0.75;1.731;-0.032;0.9;-2.7;26.7;52.1;4813;2018-04-16 23:34:45:574
-2.923;-8.744;-0.453;-3.841;-8.759;-2.168;0.918;0.015;1.716;-0.676;1.859;-0.071;0.2;-3.3;26.6;52.1;4823;2018-04-16 23:34:45:584
-3.211;-8.394;0.092;-3.841;-8.759;-2.168;0.918;0.015;1.716;-0.676;1.859;-0.071;0.2;-3.3;26.6;52.1;4834;2018-04-16 23:34:45:595
-3.211;-8.394;0.092;-3.73;-8.746;-2.399;0.264;0.382;2.391;-0.47;1.902;-0.166;-1.2;-4.3;27.4;52.1;4845;2018-04-16 23:34:45:606
-3.736;-8.38;-0.558;-3.73;-8.746;-2.399;0.264;0.382;2.391;-0.281;1.67;-0.22;-1.2;-4.3;27.4;52.1;4854;2018-04-16 23:34:45:615
-3.736;-8.38;-0.558;-3.622;-8.755;-2.529;-0.292;0.485;1.87;-0.145;1.152;-0.255;-1.2;-4.3;27.4;52.1;4864;2018-04-16 23:34:45:625
-3.819;-8.073;-0.4;-3.622;-8.755;-2.529;-0.292;0.485;1.87;-0.084;0.364;-0.268;-2.1;-4.8;26.2;52.1;4874;2018-04-16 23:34:45:635
-3.321;-7.526;0.072;-3.554;-8.771;-2.571;0.233;1.245;2.643;-0.056;0.244;-0.314;-2.6;-5.2;27.2;52.1;4884;2018-04-16 23:34:45:645
-2.883;-7.132;-0.194;-3.554;-8.771;-2.571;0.233;1.245;2.643;-0.043;0.382;-0.365;-2.6;-5.2;27.2;52.1;4893;2018-04-16 23:34:45:654
-2.883;-7.132;-0.194;-3.468;-8.794;-2.608;0.57;1.779;2.147;-0.099;0.558;-0.421;-3.0;-6.0;26.4;52.1;4903;2018-04-16 23:34:45:664
-3.12;-6.942;-0.753;-3.468;-8.794;-2.608;0.57;1.779;2.147;-0.191;0.628;-0.437;-3.0;-6.0;26.4;52.1;4914;2018-04-16 23:34:45:675
-3.12;-6.942;-0.753;-3.36;-8.813;-2.685;-0.101;2.126;1.501;-0.191;0.628;-0.437;-3.4;-5.6;27.8;52.1;4924;2018-04-16 23:34:45:685
-4.136;-6.498;-1.85;-3.36;-8.813;-2.685;-0.101;2.126;1.501;-0.32;0.632;-0.381;-3.4;-5.6;27.8;52.1;4934;2018-04-16 23:34:45:695
-4.952;-5.63;-1.207;-3.275;-8.814;-2.787;-1.378;2.834;0.792;-0.458;0.37;-0.292;-3.7;-5.8;26.8;52.1;4944;2018-04-16 23:34:45:705
-4.952;-5.63;-1.207;-3.275;-8.814;-2.787;-1.378;2.834;0.792;-0.635;-0.046;-0.166;-3.7;-5.8;26.8;52.1;4954;2018-04-16 23:34:45:715
-5.318;-4.866;-0.172;-3.264;-8.781;-2.9;-2.054;3.915;2.728;-0.709;-0.153;-0.049;-3.4;-6.0;25.9;52.1;4963;2018-04-16 23:34:45:724
-5.173;-4.307;-0.073;-3.264;-8.781;-2.9;-2.054;3.915;2.728;-0.564;-0.002;0.116;-3.4;-6.0;25.9;52.1;4973;2018-04-16 23:34:45:734
-5.173;-4.307;-0.073;-3.284;-8.741;-2.996;-1.777;4.475;2.745;-0.396;0.002;0.154;-3.8;-6.6;25.9;52.1;4983;2018-04-16 23:34:45:744
-4.689;-4.348;-0.49;-3.284;-8.741;-2.996;-1.777;4.475;2.745;-0.213;-0.075;0.183;-3.8;-6.6;25.9;55.95;4993;2018-04-16 23:34:45:754
-3.689;-4.872;-0.645;-3.322;-8.716;-3.026;-0.825;4.082;2.47;-0.213;-0.075;0.183;-3.5;-6.7;26.3;55.95;5003;2018-04-16 23:34:45:764
-3.689;-4.872;-0.645;-3.322;-8.716;-3.026;-0.825;4.082;2.47;0.084;-0.165;0.208;-3.5;-6.7;26.3;55.95;5013;2018-04-16 23:34:45:774
-2.78;-5.605;-1.097;-3.37;-8.714;-2.981;0.59;3.109;1.884;0.269;-0.222;0.203;-3.5;-6.7;26.5;55.95;5024;2018-04-16 23:34:45:785
-2.103;-6.614;-2.122;-3.37;-8.714;-2.981;0.59;3.109;1.884;0.446;-0.378;0.184;-3.5;-6.7;26.5;55.95;5034;2018-04-16 23:34:45:795
-2.103;-6.614;-2.122;-3.424;-8.727;-2.878;1.482;1.78;0.348;0.446;-0.378;0.184;-3.8;-6.8;26.6;55.95;5044;2018-04-16 23:34:45:805
-1.708;-7.63;-3.411;-3.424;-8.727;-2.878;1.482;1.78;0.348;0.469;-0.58;0.198;-3.8;-6.8;26.6;55.95;5053;2018-04-16 23:34:45:814
-1.043;-8.576;-4.519;-3.492;-8.737;-2.764;2.154;0.488;-1.419;0.379;-0.744;0.222;-4.3;-7.0;26.6;55.95;5063;2018-04-16 23:34:45:824
-1.043;-8.576;-4.519;-3.492;-8.737;-2.764;2.154;0.488;-1.419;0.13;-1.003;0.23;-4.3;-7.0;26.6;55.95;5074;2018-04-16 23:34:45:835
-0.304;-9.311;-5.137;-3.573;-8.729;-2.683;3.269;-0.582;-2.454;0.13;-1.003;0.23;-4.6;-7.1;26.6;55.95;5084;2018-04-16 23:34:45:845
-0.304;-9.311;-5.137;-3.573;-8.729;-2.683;3.269;-0.582;-2.454;-0.133;-1.145;0.143;-4.6;-7.1;26.6;55.95;5094;2018-04-16 23:34:45:855
0.186;-10.398;-6.139;-3.65;-8.711;-2.64;3.835;-1.687;-3.499;-0.292;-1.115;0.059;-4.8;-7.2;26.5;55.95;5104;2018-04-16 23:34:45:865
0.025;-10.754;-5.497;-3.65;-8.711;-2.64;3.835;-1.687;-3.499;-0.386;-0.968;-0.066;-4.8;-7.2;26.5;55.95;5113;2018-04-16 23:34:45:874
0.025;-10.754;-5.497;-3.687;-8.697;-2.632;3.63;-2.092;-2.33;-0.386;-0.968;-0.066;-5.0;-7.1;26.5;55.95;5124;2018-04-16 23:34:45:885
-0.33;-10.648;-3.979;-3.687;-8.697;-2.632;3.63;-2.092;-2.33;-0.138;-0.823;-0.228;-5.0;-7.1;26.5;55.95;5134;2018-04-16 23:34:45:895
-1.228;-10.469;-3.917;-3.673;-8.719;-2.579;2.812;-1.828;-0.92;0.123;-0.627;-0.348;-5.0;-7.2;26.5;55.95;5144;2018-04-16 23:34:45:905
-1.228;-10.469;-3.917;-3.673;-8.719;-2.579;2.812;-1.828;-0.92;0.327;-0.351;-0.43;-5.0;-7.2;26.5;55.95;5154;2018-04-16 23:34:45:915
-2.106;-10.235;-5.121;-3.606;-8.772;-2.494;1.5;-1.463;-2.627;0.412;-0.181;-0.467;-4.9;-7.2;26.6;55.95;5164;2018-04-16 23:34:45:925
-2.808;-9.741;-6.385;-3.606;-8.772;-2.494;1.5;-1.463;-2.627;0.421;-0.191;-0.459;-4.9;-7.2;26.6;55.95;5174;2018-04-16 23:34:45:935
-2.808;-9.741;-6.385;-3.537;-8.824;-2.407;0.592;-0.734;-4.295;0.421;-0.191;-0.459;-4.8;-7.2;26.6;55.95;5184;2018-04-16 23:34:45:945
-3.144;-9.438;-6.791;-3.537;-8.824;-2.407;0.592;-0.734;-4.295;0.412;-0.395;-0.439;-4.8;-7.2;26.6;55.95;5194;2018-04-16 23:34:45:955
-4.003;-9.341;-6.075;-3.503;-8.871;-2.284;-0.501;-0.47;-3.792;0.373;-0.976;-0.382;-4.8;-7.2;26.6;55.95;5204;2018-04-16 23:34:45:965
-4.585;-9.391;-5.34;-3.504;-8.887;-2.216;-1.081;-0.504;-3.124;0.343;-1.181;-0.36;-4.7;-7.1;26.7;55.95;5213;2018-04-16 23:34:45:974
-4.585;-9.391;-5.34;-3.504;-8.887;-2.216;-1.081;-0.504;-3.124;0.268;-1.564;-0.187;-4.7;-7.1;26.7;55.95;5224;2018-04-16 23:34:45:985
-5.042;-8.655;-1.052;-3.538;-8.913;-2.053;-1.504;0.258;1.001;0.268;-1.564;-0.187;-4.3;-7.0;26.6;55.95;5233;2018-04-16 23:34:45:994
-4.658;-9.009;0.956;-3.546;-8.93;-1.963;-1.112;-0.079;2.919;0.343;-1.253;-0.228;-4.3;-7.0;26.6;55.95;5243;2018-04-16 23:34:46:004
-4.658;-9.009;0.956;-3.546;-8.93;-1.963;-1.112;-0.079;2.919;0.748;-0.187;-0.303;-4.0;-6.9;26.7;55.95;5254;2018-04-16 23:34:46:015
-4.925;-12.175;1.901;-3.507;-8.977;-1.814;-1.418;-3.198;3.715;0.902;0.126;-0.253;-3.9;-6.8;26.8;55.95;5264;2018-04-16 23:34:46:025
-4.925;-12.175;1.901;-3.507;-8.977;-1.814;-1.418;-3.198;3.715;0.902;0.126;-0.253;-3.9;-6.8;26.8;55.95;5274;2018-04-16 23:34:46:035
-6.703;-14.902;-5.344;-3.46;-9.019;-1.688;-3.242;-5.882;-3.656;0.696;0.261;-0.203;-3.5;-6.5;26.8;55.95;5284;2018-04-16 23:34:46:045
-6.703;-14.902;-5.344;-3.46;-9.019;-1.688;-3.242;-5.882;-3.656;0.696;0.261;-0.203;-3.5;-6.5;26.8;55.95;5294;2018-04-16 23:34:46:055
-5.598;-11.559;-3.974;-3.408;-9.036;-1.706;-2.19;-2.523;-2.268;-0.109;0.555;-0.244;-3.2;-6.2;26.9;55.95;5303;2018-04-16 23:34:46:064
-4.556;-5.307;3.342;-3.408;-9.036;-1.706;-2.19;-2.523;-2.268;-0.09;1.277;-0.474;-3.2;-6.2;26.9;53.17;5314;2018-04-16 23:34:46:075
-4.556;-5.307;3.342;-3.281;-9.065;-1.798;-1.396;4.73;5.531;0.205;1.515;-0.514;-2.9;-6.0;26.8;53.17;5323;2018-04-16 23:34:46:084
-4.981;-3.818;2.923;-3.281;-9.065;-1.798;-1.396;4.73;5.531;0.502;1.414;-0.423;-2.9;-6.0;26.8;53.17;5333;2018-04-16 23:34:46:094
-5.418;-4.031;1.644;-3.159;-9.109;-1.795;-2.259;5.078;3.438;0.726;1.114;-0.22;-2.7;-5.7;26.8;53.17;5344;2018-04-16 23:34:46:105
-6.029;-4.881;1.132;-3.159;-9.109;-1.795;-2.259;5.078;3.438;0.896;0.761;0.051;-2.7;-5.7;26.8;53.17;5354;2018-04-16 23:34:46:115
-6.029;-4.881;1.132;-3.144;-9.136;-1.677;-3.054;3.895;2.773;0.896;0.761;0.051;-2.5;-5.4;26.7;53.17;5363;2018-04-16 23:34:46:124
-6.762;-6.495;1.217;-3.144;-9.136;-1.677;-3.054;3.895;2.773;1.04;0.396;0.384;-2.5;-5.4;26.7;53.17;5374;2018-04-16 23:34:46:135
-7.333;-8.763;1.635;-3.234;-9.135;-1.503;-3.956;1.182;3.063;1.034;0.352;0.53;-2.4;-5.1;26.6;53.17;5383;2018-04-16 23:34:46:144
-7.333;-8.763;1.635;-3.234;-9.135;-1.503;-3.956;1.182;3.063;0.877;0.586;0.663;-2.4;-5.1;26.6;53.17;5393;2018-04-16 23:34:46:154
-7.037;-9.736;1.137;-3.34;-9.116;-1.385;-3.697;-0.62;2.522;0.67;0.76;0.738;-2.4;-4.8;26.7;53.17;5404;2018-04-16 23:34:46:165
-6.266;-9.694;0.3;-3.34;-9.116;-1.385;-3.697;-0.62;2.522;0.67;0.76;0.738;-2.4;-4.8;26.7;53.17;5413;2018-04-16 23:34:46:174
-6.266;-9.694;0.3;-3.467;-9.071;-1.366;-2.537;-0.516;1.383;0.294;0.847;0.871;-2.4;-4.5;26.7;53.17;5423;2018-04-16 23:34:46:184
-5.446;-9.288;-0.417;-3.467;-9.071;-1.366;-2.537;-0.516;1.383;-0.097;0.645;1.002;-2.4;-4.5;26.7;53.17;5434;2018-04-16 23:34:46:195
-4.584;-8.856;-0.922;-3.634;-8.996;-1.428;-1.291;0.031;0.685;-0.097;0.645;1.002;-2.4;-4.1;26.6;53.17;5444;2018-04-16 23:34:46:205
-4.584;-8.856;-0.922;-3.634;-8.996;-1.428;-1.291;0.031;0.685;-0.454;0.216;1.031;-2.4;-4.1;26.6;53.17;5453;2018-04-16 23:34:46:214
-3.871;-8.839;-1.015;-3.818;-8.903;-1.525;-0.053;0.064;0.51;-0.667;-0.172;0.997;-2.5;-3.7;26.5;53.17;5463;2018-04-16 23:34:46:224
-3.057;-8.906;-0.798;-3.818;-8.903;-1.525;-0.053;0.064;0.51;-0.952;-0.777;0.892;-2.5;-3.7;26.5;53.17;5474;2018-04-16 23:34:46:235
-3.057;-8.906;-0.798;-3.992;-8.809;-1.625;1.014;-0.176;0.928;-1.076;-1.195;0.739;-2.7;-3.3;26.4;53.17;5483;2018-04-16 23:34:46:244
-3.153;-9.82;-1.475;-3.992;-8.809;-1.625;1.014;-0.176;0.928;-1.076;-1.195;0.739;-2.7;-3.3;26.4;53.17;5493;2018-04-16 23:34:46:254
-1.639;-10.07;-0.791;-4.17;-8.728;-1.611;1.923;-1.421;0.097;-0.713;-2.557;0.657;-2.7;-3.0;26.3;53.17;5503;2018-04-16 23:34:46:264
-1.639;-10.07;-0.791;-4.17;-8.728;-1.611;1.923;-1.421;0.097;0.446;-4.789;0.389;-2.7;-3.0;26.3;53.17;5514;2018-04-16 23:34:46:275
-1.555;-10.485;0.912;-4.37;-8.698;-1.188;2.815;-1.787;2.1;0.601;-4.886;0.184;-2.7;-2.7;26.2;53.17;5524;2018-04-16 23:34:46:285
-1.314;-10.739;1.861;-4.37;-8.698;-1.188;2.815;-1.787;2.1;0.671;-4.65;0.136;-2.7;-2.7;26.2;53.17;5534;2018-04-16 23:34:46:295
-1.314;-10.739;1.861;-4.485;-8.696;-0.66;3.18;-1.859;2.613;0.671;-4.65;0.136;-2.6;-2.4;26.2;53.17;5544;2018-04-16 23:34:46:305
-1.306;-10.066;2.204;-4.485;-8.696;-0.66;3.18;-1.859;2.613;0.765;-4.023;0.171;-2.6;-2.4;26.2;53.17;5554;2018-04-16 23:34:46:315
-0.783;-8.814;2.966;-4.52;-8.701;-0.171;3.415;-0.707;3.039;0.833;-3.34;0.123;-2.3;-2.1;26.1;53.17;5564;2018-04-16 23:34:46:325
-0.783;-8.814;2.966;-4.52;-8.701;-0.171;3.415;-0.707;3.039;0.992;-1.93;-0.13;-2.3;-2.1;26.1;53.17;5573;2018-04-16 23:34:46:334
-0.991;-7.932;2.449;-4.49;-8.717;0.171;3.499;0.785;2.278;1.057;-0.974;-0.325;-1.9;-1.8;26.0;53.17;5583;2018-04-16 23:34:46:344
-1.87;-8.08;1.502;-4.49;-8.717;0.171;3.499;0.785;2.278;1.043;-0.148;-0.463;-1.9;-1.8;26.0;53.17;5594;2018-04-16 23:34:46:355
-2.586;-8.744;1.033;-4.409;-8.752;0.363;2.163;0.334;0.866;0.953;0.489;-0.506;0.3;-1.2;25.7;53.17;5605;2018-04-16 23:34:46:366
-2.586;-8.744;1.033;-4.409;-8.752;0.363;2.163;0.334;0.866;0.953;0.489;-0.506;0.3;-1.2;25.7;53.17;5619;2018-04-16 23:34:46:380
-3.267;-9.227;0.704;-4.322;-8.792;0.43;1.056;-0.435;0.274;0.775;1.093;-0.456;1.3;-0.2;26.0;53.17;5624;2018-04-16 23:34:46:385
-3.177;-8.911;-0.038;-4.322;-8.792;0.43;1.056;-0.435;0.274;0.693;1.312;-0.408;1.3;-0.2;26.0;58.56;5633;2018-04-16 23:34:46:394
-3.177;-8.911;-0.038;-4.252;-8.826;0.44;1.179;0.05;-0.635;0.72;1.173;-0.458;1.6;0.0;26.2;58.56;5643;2018-04-16 23:34:46:404
-3.108;-8.583;-0.299;-4.252;-8.826;0.44;1.179;0.05;-0.635;0.797;0.926;-0.514;1.6;0.0;26.2;58.56;5654;2018-04-16 23:34:46:415
-3.412;-8.734;0.036;-4.168;-8.863;0.501;0.756;0.129;-0.465;0.891;0.734;-0.498;1.5;0.1;26.7;58.56;5663;2018-04-16 23:34:46:424
-3.621;-8.928;0.637;-4.168;-8.863;0.501;0.756;0.129;-0.465;0.974;0.657;-0.432;1.5;0.1;26.7;58.56;5674;2018-04-16 23:34:46:435
-3.621;-8.928;0.637;-4.094;-8.89;0.618;0.453;-0.092;0.221;0.974;0.657;-0.432;1.3;0.8;25.4;58.56;5684;2018-04-16 23:34:46:445
-3.694;-9.076;1.126;-4.094;-8.89;0.618;0.453;-0.092;0.221;1.01;0.766;-0.351;1.3;0.8;25.4;58.56;5694;2018-04-16 23:34:46:455
-3.694;-9.076;1.126;-4.042;-8.905;0.73;0.289;-0.163;0.515;0.991;0.949;-0.325;1.4;1.5;25.8;58.56;5704;2018-04-16 23:34:46:465
-3.77;-8.941;1.209;-4.042;-8.905;0.73;0.289;-0.163;0.515;1.018;1.185;-0.313;1.4;1.5;25.8;58.56;5714;2018-04-16 23:34:46:475
-3.852;-8.724;1.197;-4.003;-8.915;0.823;0.217;0.184;0.365;1.124;1.243;-0.302;1.3;2.2;25.1;58.56;5724;2018-04-16 23:34:46:485
-3.852;-8.724;1.197;-4.003;-8.915;0.823;0.217;0.184;0.365;1.124;1.243;-0.302;1.3;2.2;25.1;58.56;5733;2018-04-16 23:34:46:494
-4.175;-9.172;1.05;-3.977;-8.913;0.952;-0.199;-0.259;0.098;1.341;1.246;-0.252;1.5;2.5;26.1;58.56;5743;2018-04-16 23:34:46:504
-4.17;-9.465;0.481;-3.977;-8.913;0.952;-0.199;-0.259;0.098;1.528;1.169;-0.16;1.5;2.5;26.1;58.56;5753;2018-04-16 23:34:46:514
-4.17;-9.465;0.481;-3.972;-8.894;1.133;-0.232;-0.63;-0.991;1.638;0.99;-0.115;1.3;2.7;25.0;58.56;5764;2018-04-16 23:34:46:525
-4.249;-9.549;-0.622;-3.972;-8.894;1.133;-0.232;-0.63;-0.991;1.638;0.99;-0.115;1.3;2.7;25.0;58.56;5774;2018-04-16 23:34:46:535
-4.087;-9.4;-1.138;-3.981;-8.855;1.381;-0.106;-0.545;-2.519;1.768;0.412;0.004;1.6;3.1;25.2;58.56;5783;2018-04-16 23:34:46:544
-3.598;-9.22;-1.408;-3.981;-8.855;1.381;-0.106;-0.545;-2.519;1.668;-0.443;0.109;1.6;3.1;25.2;58.56;5794;2018-04-16 23:34:46:555
-3.598;-9.22;-1.408;-3.988;-8.8;1.681;0.467;-0.364;-3.215;1.668;-0.443;0.109;1.4;3.5;25.0;58.56;5804;2018-04-16 23:34:46:565
-3.363;-8.905;-2.059;-3.988;-8.8;1.681;0.467;-0.364;-3.215;1.36;-1.12;0.101;1.9;4.0;25.0;58.56;5814;2018-04-16 23:34:46:575
-3.363;-8.905;-2.059;-3.964;-8.751;1.971;0.716;0.094;-4.595;1.36;-1.12;0.101;1.9;4.0;25.0;58.56;5824;2018-04-16 23:34:46:585
-3.266;-8.63;-3.327;-3.964;-8.751;1.971;0.716;0.094;-4.595;1.211;-1.563;0.077;1.9;4.3;24.8;58.56;5833;2018-04-16 23:34:46:594
-3.241;-9.157;-2.84;-3.913;-8.713;2.224;0.643;-0.176;-5.836;0.894;-1.388;0.051;1.9;4.3;24.8;58.56;5844;2018-04-16 23:34:46:605
-3.241;-9.157;-2.84;-3.913;-8.713;2.224;0.643;-0.176;-5.836;-0.021;-0.121;0.064;2.2;5.7;24.7;58.56;5854;2018-04-16 23:34:46:615
-3.08;-9.704;-0.073;-3.919;-8.715;2.204;0.839;-0.988;-2.277;-0.021;-0.121;0.064;2.2;5.7;24.7;58.56;5864;2018-04-16 23:34:46:625
-2.753;-10.333;1.17;-3.919;-8.715;2.204;0.839;-0.988;-2.277;-0.63;1.098;0.128;2.1;6.2;24.2;58.56;5873;2018-04-16 23:34:46:634
-2.753;-10.333;1.17;-3.989;-8.736;1.986;1.196;-1.946;-0.799;-0.69;1.404;0.1;2.1;6.2;24.2;58.56;5883;2018-04-16 23:34:46:644
-3.085;-11.418;1.107;-3.989;-8.736;1.986;1.196;-1.946;-0.799;-0.551;1.317;0.027;1.5;6.6;23.7;58.56;5893;2018-04-16 23:34:46:654
-3.085;-11.418;1.107;-4.032;-8.752;1.819;0.981;-3.153;-0.559;-0.551;1.317;0.027;1.5;6.6;23.7;58.56;5904;2018-04-16 23:34:46:665
-2.761;-12.057;1.253;-4.032;-8.752;1.819;0.981;-3.153;-0.559;-0.095;0.645;-0.059;1.4;6.7;24.8;58.56;5914;2018-04-16 23:34:46:675
-2.145;-11.988;0.754;-4.034;-8.759;1.783;1.627;-3.279;-0.808;0.077;0.264;-0.087;1.4;6.7;24.8;58.56;5924;2018-04-16 23:34:46:685
-2.145;-11.988;0.754;-4.034;-8.759;1.783;1.627;-3.279;-0.808;0.182;-0.348;-0.147;1.2;6.6;24.4;58.56;5933;2018-04-16 23:34:46:694
-1.891;-12.147;0.636;-3.995;-8.764;1.843;2.104;-3.383;-1.207;0.156;-0.699;-0.166;1.2;6.6;24.4;58.56;5943;2018-04-16 23:34:46:704
-1.658;-12.291;0.31;-3.995;-8.764;1.843;2.104;-3.383;-1.207;0.059;-0.968;-0.169;1.0;6.7;24.3;53.27;5953;2018-04-16 23:34:46:714
-1.658;-12.291;0.31;-3.928;-8.777;1.927;2.3;-3.472;-1.838;-0.109;-1.169;-0.191;1.0;6.7;24.3;53.27;5963;2018-04-16 23:34:46:724
-1.845;-11.99;-0.514;-3.928;-8.777;1.927;2.3;-3.472;-1.838;-0.34;-1.324;-0.269;0.9;7.3;24.2;53.27;5973;2018-04-16 23:34:46:734
-2.848;-11.412;-1.439;-3.829;-8.811;1.966;0.982;-2.601;-3.405;-0.34;-1.324;-0.269;0.9;7.3;24.2;53.27;5983;2018-04-16 23:34:46:744
-4.99;-10.333;-2.71;-3.829;-8.811;1.966;0.982;-2.601;-3.405;-0.735;-1.318;-0.363;0.8;7.7;24.1;53.27;5993;2018-04-16 23:34:46:754
-4.99;-10.333;-2.71;-3.725;-8.874;1.882;-1.662;-1.208;-4.756;-1.112;-0.903;-0.34;0.8;7.7;24.1;53.27;6003;2018-04-16 23:34:46:764
-5.987;-9.548;-2.877;-3.725;-8.874;1.882;-1.662;-1.208;-4.756;-1.922;0.15;-0.231;0.7;8.0;24.0;53.27;6014;2018-04-16 23:34:46:775
-5.987;-9.548;-2.877;-3.69;-8.958;1.521;-2.473;-0.264;-3.882;-1.922;0.15;-0.231;0.7;8.0;24.0;53.27;6024;2018-04-16 23:34:46:785
-6.314;-9.316;-1.846;-3.69;-8.958;1.521;-2.473;-0.264;-3.882;-2.695;1.032;-0.138;0.6;8.2;24.0;53.27;6033;2018-04-16 23:34:46:794
-6.401;-9.369;-0.764;-3.7;-9.035;0.916;-2.701;-0.333;-1.68;-2.999;1.361;-0.081;0.5;8.4;24.0;53.27;6043;2018-04-16 23:34:46:804
-5.774;-9.649;1.422;-3.7;-9.035;0.916;-2.701;-0.333;-1.68;-3.087;1.363;-0.033;0.5;8.4;24.0;53.27;6054;2018-04-16 23:34:46:815
-5.774;-9.649;1.422;-3.713;-9.072;0.275;-1.864;-0.692;1.875;-3.014;1.078;0.005;0.5;8.5;24.0;53.27;6064;2018-04-16 23:34:46:825
-4.899;-9.813;3.578;-3.713;-9.072;0.275;-1.864;-0.692;1.875;-2.605;0.465;0.061;0.5;8.5;24.0;53.27;6074;2018-04-16 23:34:46:835
-4.916;-10.35;4.786;-3.725;-9.068;-0.26;-0.951;-0.929;4.613;-2.605;0.465;0.061;0.4;8.4;24.0;53.27;6083;2018-04-16 23:34:46:844
-4.916;-10.35;4.786;-3.725;-9.068;-0.26;-0.951;-0.929;4.613;-2.468;0.489;-0.005;0.4;8.4;24.0;53.27;6094;2018-04-16 23:34:46:855
-5.878;-11.052;6.511;-3.71;-9.047;-0.75;-2.168;-2.005;7.261;-2.261;1.097;-0.055;0.4;8.2;24.1;53.27;6104;2018-04-16 23:34:46:865
-5.479;-10.59;5.863;-3.71;-9.047;-0.75;-2.168;-2.005;7.261;-1.921;2.155;-0.05;0.4;8.2;24.1;53.27;6114;2018-04-16 23:34:46:875
-5.479;-10.59;5.863;-3.654;-9.014;-1.248;-1.819;-1.548;7.522;-1.644;2.551;-0.16;0.2;7.8;24.2;53.27;6124;2018-04-16 23:34:46:885
-6.098;-10.938;6.791;-3.654;-9.014;-1.248;-1.819;-1.548;7.522;-1.159;2.804;-0.182;0.2;7.8;24.2;53.27;6134;2018-04-16 23:34:46:895
-5.995;-10.612;6.094;-3.541;-8.994;-1.658;-2.454;-1.619;7.752;-1.159;2.804;-0.182;-0.2;7.0;24.4;53.27;6144;2018-04-16 23:34:46:905
-4.736;-9.124;4.312;-3.541;-8.994;-1.658;-2.454;-1.619;7.752;-0.52;3.184;-0.165;-0.2;7.0;24.4;53.27;6153;2018-04-16 23:34:46:914
-4.736;-9.124;4.312;-3.384;-9.001;-1.924;-1.262;-0.049;4.883;-0.082;3.089;-0.301;-1.9;5.2;24.9;53.27;6163;2018-04-16 23:34:46:924
-3.243;-10.834;-8.331;-3.384;-9.001;-1.924;-1.262;-0.049;4.883;0.136;1.482;-0.378;-1.9;5.2;24.9;53.27;6173;2018-04-16 23:34:46:934
-2.02;-11.777;-8.029;-3.259;-9.029;-2.006;1.239;-2.748;-6.022;0.136;1.482;-0.378;-1.9;5.2;24.9;53.27;6184;2018-04-16 23:34:46:945
-2.02;-11.777;-8.029;-3.259;-9.029;-2.006;1.239;-2.748;-6.022;-0.131;0.597;-0.378;-3.3;3.7;25.2;53.27;6194;2018-04-16 23:34:46:955
-2.083;-10.878;-3.399;-3.144;-9.037;-2.15;1.061;-1.841;-1.249;-0.599;1.167;-0.432;-4.2;3.2;26.4;53.27;6204;2018-04-16 23:34:46:965
-2.083;-10.878;-3.399;-3.144;-9.037;-2.15;1.061;-1.841;-1.249;-0.599;1.167;-0.432;-4.2;3.2;26.4;53.27;6213;2018-04-16 23:34:46:974
-3.821;-8.292;-0.195;-3.018;-9.024;-2.373;-0.803;0.732;2.178;-0.748;1.477;-0.281;-5.5;2.8;24.0;53.27;6225;2018-04-16 23:34:46:986
-3.625;-6.773;0.984;-3.018;-9.024;-2.373;-0.803;0.732;2.178;-0.699;0.864;-0.075;-5.5;2.8;24.0;53.27;6234;2018-04-16 23:34:46:995
-3.625;-6.773;0.984;-2.963;-8.994;-2.549;-0.488;2.458;3.477;-0.762;0.367;-0.018;-5.6;2.3;24.6;53.27;6244;2018-04-16 23:34:47:005
-3.439;-6.395;1.012;-2.963;-8.994;-2.549;-0.488;2.458;3.477;-0.992;0.064;0.006;-5.6;2.3;24.6;53.27;6253;2018-04-16 23:34:47:014
-3.334;-5.873;1.494;-2.956;-8.942;-2.732;-0.379;2.902;4.581;-1.164;0.16;-0.04;-6.2;1.3;25.0;53.27;6264;2018-04-16 23:34:47:025
-3.334;-5.873;1.494;-2.956;-8.942;-2.732;-0.379;2.902;4.581;-1.244;0.378;-0.17;-6.2;1.3;25.0;53.27;6274;2018-04-16 23:34:47:035
-4.855;-5.826;0.304;-2.91;-8.881;-2.972;-1.945;3.054;3.276;-1.324;0.195;-0.197;-7.1;0.6;25.4;53.27;6284;2018-04-16 23:34:47:045
-5.3;-4.635;-0.007;-2.91;-8.881;-2.972;-1.945;3.054;3.276;-1.4;-0.024;-0.1;-7.1;0.6;25.4;56.22;6293;2018-04-16 23:34:47:054
-5.3;-4.635;-0.007;-2.894;-8.8;-3.219;-2.548;4.543;3.263;-1.456;-0.138;-0.026;-6.7;1.0;26.3;56.22;6303;2018-04-16 23:34:47:064
-5.819;-3.608;0.423;-2.894;-8.8;-3.219;-2.548;4.543;3.263;-1.401;-0.048;0.046;-6.7;1.0;26.3;56.22;6313;2018-04-16 23:34:47:074
-5.819;-3.608;0.423;-2.906;-8.705;-3.456;-3.016;5.614;3.929;-1.401;-0.048;0.046;-7.3;-0.3;25.9;56.22;6323;2018-04-16 23:34:47:084
-5.781;-2.965;0.333;-2.906;-8.705;-3.456;-3.016;5.614;3.929;-1.012;0.165;0.121;-7.3;-0.3;25.9;56.22;6333;2018-04-16 23:34:47:094
-4.812;-3.437;0.043;-2.919;-8.64;-3.606;-2.389;5.434;3.844;-0.628;0.199;0.162;-7.4;-0.5;26.0;56.22;6343;2018-04-16 23:34:47:104
-4.812;-3.437;0.043;-2.93;-8.626;-3.631;-1.5;5.057;3.601;-0.247;0.224;0.231;-7.4;-0.5;26.0;56.22;6354;2018-04-16 23:34:47:115
-3.494;-3.97;-0.369;-2.93;-8.626;-3.631;-1.5;5.057;3.601;0.057;0.232;0.302;-7.4;-0.5;26.0;56.22;6364;2018-04-16 23:34:47:125
-3.494;-3.97;-0.369;-2.973;-8.617;-3.616;0.03;4.418;3.165;0.057;0.232;0.302;-7.4;-0.1;25.4;56.22;6374;2018-04-16 23:34:47:135
-1.89;-4.493;-0.742;-2.973;-8.617;-3.616;0.03;4.418;3.165;0.615;0.062;0.514;-7.4;-0.1;25.4;56.22;6384;2018-04-16 23:34:47:145
-0.808;-4.911;-2.136;-3.07;-8.634;-3.493;1.88;3.974;2.017;0.889;-0.255;0.657;-7.4;-0.4;26.3;56.22;6394;2018-04-16 23:34:47:155
-0.808;-4.911;-2.136;-3.07;-8.634;-3.493;1.88;3.974;2.017;0.98;-0.638;0.75;-7.5;-0.1;25.7;56.22;6404;2018-04-16 23:34:47:165
0.399;-5.808;-3.673;-3.239;-8.653;-3.287;3.638;2.844;-0.385;0.98;-0.638;0.75;-7.5;-0.1;25.7;56.22;6414;2018-04-16 23:34:47:175
1.562;-6.712;-4.531;-3.355;-8.659;-3.152;4.917;1.947;-1.379;0.93;-1.313;0.74;-7.9;-0.3;25.7;56.22;6423;2018-04-16 23:34:47:184
2.279;-8.88;-5.199;-3.355;-8.659;-3.152;4.917;1.947;-1.379;0.817;-1.759;0.511;-7.9;-0.3;25.7;56.22;6434;2018-04-16 23:34:47:195
2.279;-8.88;-5.199;-3.505;-8.687;-2.901;5.552;-1.318;-2.536;0.679;-2.154;0.142;-7.9;-0.3;25.7;56.22;6443;2018-04-16 23:34:47:204
1.456;-11.607;-5.41;-3.505;-8.687;-2.901;5.552;-1.318;-2.536;0.582;-2.301;-0.078;-8.2;-0.5;25.6;56.22;6454;2018-04-16 23:34:47:215
1.456;-11.607;-5.41;-3.556;-8.737;-2.681;3.062;-7.448;-2.524;0.184;-1.952;-0.589;-8.2;-0.5;25.6;56.22;6464;2018-04-16 23:34:47:225
-0.925;-17.172;-4.99;-3.556;-8.737;-2.681;3.062;-7.448;-2.524;0.06;-1.344;-0.584;-8.4;-0.6;25.6;56.22;6474;2018-04-16 23:34:47:235
-0.709;-16.2;-4.916;-3.521;-8.781;-2.581;2.812;-7.419;-2.335;-0.093;-0.539;-0.573;-8.4;-0.6;25.6;56.22;6484;2018-04-16 23:34:47:245
-0.709;-16.2;-4.916;-3.521;-8.781;-2.581;2.812;-7.419;-2.335;-0.093;-0.539;-0.573;-8.4;-0.7;25.6;56.22;6494;2018-04-16 23:34:47:255
-0.791;-13.588;-7.852;-3.41;-8.808;-2.638;2.619;-4.78;-5.213;-0.285;0.536;-0.553;-8.4;-0.7;25.6;56.22;6504;2018-04-16 23:34:47:265
-2.158;-11.694;-11.789;-3.41;-8.808;-2.638;2.619;-4.78;-5.213;-0.235;0.79;-0.525;-8.3;-0.7;25.5;56.22;6513;2018-04-16 23:34:47:274
-2.158;-11.694;-11.789;-3.28;-8.832;-2.723;0.509;-2.353;-9.312;0.007;0.315;-0.511;-8.3;-0.7;25.5;56.22;6523;2018-04-16 23:34:47:284
-4.047;-10.491;-10.125;-3.28;-8.832;-2.723;0.509;-2.353;-9.312;0.007;0.315;-0.511;-8.2;-0.7;25.6;56.22;6533;2018-04-16 23:34:47:294
-6.716;-10.374;-6.892;-3.202;-8.885;-2.642;-2.421;-1.45;-5.491;0.541;-0.45;-0.518;-8.1;-0.7;25.7;56.22;6544;2018-04-16 23:34:47:305
-6.716;-10.374;-6.892;-3.202;-8.885;-2.642;-2.421;-1.45;-5.491;0.772;-0.832;-0.528;-8.1;-0.7;25.7;56.22;6554;2018-04-16 23:34:47:315
-8.68;-9.67;-4.578;-3.168;-8.952;-2.448;-5.512;-0.718;-2.129;0.674;-1.145;-0.434;-8.1;-0.7;25.7;56.22;6564;2018-04-16 23:34:47:325
-8.68;-9.67;-4.578;-3.168;-8.952;-2.448;-5.512;-0.718;-2.129;0.079;-1.343;-0.062;-8.0;-0.7;25.8;56.22;6574;2018-04-16 23:34:47:335
-9.046;-7.707;2.369;-3.22;-8.959;-2.353;-5.827;1.252;4.722;0.079;-1.343;-0.062;-7.8;-0.5;26.0;56.22;6583;2018-04-16 23:34:47:344
-7.658;-7.228;3.76;-3.22;-8.959;-2.353;-5.827;1.252;4.722;-0.282;-0.646;0.216;-7.8;-0.5;26.0;56.22;6593;2018-04-16 23:34:47:354
-7.658;-7.228;3.76;-3.264;-8.935;-2.382;-4.322;0.956;5.157;-0.18;0.227;0.183;-7.6;-0.4;25.9;56.22;6603;2018-04-16 23:34:47:364
-7.469;-9.413;0.341;-3.264;-8.935;-2.382;-4.322;0.956;5.157;0.324;0.915;0.098;-7.6;-0.4;25.9;60.69;6613;2018-04-16 23:34:47:374
-7.469;-9.413;0.341;-3.241;-8.939;-2.398;-2.724;0.202;1.453;0.324;0.915;0.098;-7.4;-0.1;26.0;60.69;6623;2018-04-16 23:34:47:384
-4.396;-7.348;-0.29;-3.241;-8.939;-2.398;-2.724;0.202;1.453;0.445;0.948;0.093;-7.4;-0.1;26.0;60.69;6633;2018-04-16 23:34:47:394
-4.191;-6.706;2.119;-3.206;-8.958;-2.375;-0.777;2.317;3.783;0.514;1.027;0.039;-7.2;0.1;26.0;60.69;6643;2018-04-16 23:34:47:404
-4.191;-6.706;2.119;-3.189;-8.969;-2.357;-1.419;1.919;4.784;0.616;1.14;0.086;-7.2;0.1;26.0;60.69;6654;2018-04-16 23:34:47:415
-4.895;-7.298;2.376;-3.189;-8.969;-2.357;-1.419;1.919;4.784;0.633;1.034;0.178;-7.1;0.2;26.0;60.69;6664;2018-04-16 23:34:47:425
-5.259;-7.827;0.721;-3.204;-8.982;-2.287;-1.824;1.506;4.138;0.528;0.766;0.324;-7.0;0.6;26.0;60.69;6674;2018-04-16 23:34:47:435
-5.259;-7.827;0.721;-3.204;-8.982;-2.287;-1.824;1.506;4.138;0.195;0.323;0.601;-7.0;0.6;26.0;60.69;6683;2018-04-16 23:34:47:444
-5.31;-8.631;0.548;-3.31;-8.953;-2.249;-2.0;0.322;2.797;-0.02;0.126;0.779;-6.9;1.0;26.0;60.69;6693;2018-04-16 23:34:47:454
-5.404;-9.512;0.363;-3.31;-8.953;-2.249;-2.0;0.322;2.797;-0.227;-0.023;0.91;-6.9;1.0;26.0;60.69;6703;2018-04-16 23:34:47:464
-5.404;-9.512;0.363;-3.472;-8.882;-2.285;-1.896;-0.764;2.546;-0.227;-0.023;0.91;-6.8;1.3;26.0;60.69;6713;2018-04-16 23:34:47:474
-5.063;-9.783;-0.135;-3.472;-8.882;-2.285;-1.896;-0.764;2.546;-0.571;-0.315;0.99;-6.8;1.3;26.0;60.69;6723;2018-04-16 23:34:47:484
-4.606;-9.858;-0.19;-3.663;-8.782;-2.37;-1.08;-1.009;2.205;-0.863;-0.75;0.888;-6.8;1.5;26.0;60.69;6734;2018-04-16 23:34:47:495
-4.606;-9.858;-0.19;-3.663;-8.782;-2.37;-1.08;-1.009;2.205;-0.985;-1.084;0.792;-6.8;1.5;26.0;60.69;6744;2018-04-16 23:34:47:505
-4.217;-9.669;-0.08;-3.855;-8.676;-2.457;-0.363;-0.993;2.377;-1.031;-1.442;0.71;-6.7;1.8;26.1;60.69;6754;2018-04-16 23:34:47:515
-3.522;-9.452;-0.239;-3.855;-8.676;-2.457;-0.363;-0.993;2.377;-1.031;-1.442;0.71;-6.7;1.8;26.1;60.69;6764;2018-04-16 23:34:47:525
-3.522;-9.452;-0.239;-4.048;-8.585;-2.468;0.718;-0.797;1.927;-0.932;-2.068;0.582;-6.7;2.0;26.1;60.69;6773;2018-04-16 23:34:47:534
-2.665;-9.188;-0.578;-4.169;-8.554;-2.369;1.504;-0.634;1.791;-0.451;-2.998;0.53;-6.7;2.0;26.1;60.69;6783;2018-04-16 23:34:47:544
-1.968;-9.056;0.977;-4.169;-8.554;-2.369;1.504;-0.634;1.791;0.288;-4.012;0.43;-6.7;2.1;26.0;60.69;6794;2018-04-16 23:34:47:555
-1.968;-9.056;0.977;-4.387;-8.565;-1.89;2.233;-0.728;3.281;0.81;-4.446;0.211;-6.7;2.1;26.0;60.69;6804;2018-04-16 23:34:47:565
-2.375;-9.598;1.936;-4.387;-8.565;-1.89;2.233;-0.728;3.281;1.063;-4.309;0.017;-6.6;2.2;26.0;60.69;6814;2018-04-16 23:34:47:575
-2.375;-9.598;1.936;-4.491;-8.619;-1.307;2.183;-0.803;3.535;1.224;-3.881;-0.097;-6.6;2.2;26.0;60.69;6824;2018-04-16 23:34:47:585
-2.448;-9.185;2.678;-4.491;-8.619;-1.307;2.183;-0.803;3.535;1.224;-3.881;-0.097;-6.6;2.2;26.0;60.69;6834;2018-04-16 23:34:47:595
-2.448;-9.185;2.678;-4.495;-8.681;-0.776;2.378;-0.261;3.253;1.552;-2.751;-0.167;-6.2;2.4;26.0;60.69;6844;2018-04-16 23:34:47:605
-1.911;-8.815;1.684;-4.495;-8.681;-0.776;2.378;-0.261;3.253;1.684;-0.75;-0.359;-5.7;2.7;26.0;60.69;6853;2018-04-16 23:34:47:614
-1.911;-8.815;1.684;-4.395;-8.753;-0.488;1.63;-0.589;1.862;1.442;0.474;-0.605;-5.7;2.7;26.0;60.69;6863;2018-04-16 23:34:47:624
-3.231;-9.321;1.16;-4.395;-8.753;-0.488;1.63;-0.589;1.862;1.442;0.474;-0.605;-5.7;2.7;26.0;60.69;6874;2018-04-16 23:34:47:635
-2.812;-8.216;0.486;-4.263;-8.821;-0.436;1.273;0.184;1.278;1.068;1.692;-0.632;-4.8;3.1;26.0;60.69;6884;2018-04-16 23:34:47:645
-2.812;-8.216;0.486;-4.263;-8.821;-0.436;1.273;0.184;1.278;0.915;2.217;-0.484;-4.0;3.8;25.9;60.69;6893;2018-04-16 23:34:47:654
-2.546;-7.518;-0.158;-4.16;-8.869;-0.455;1.614;1.351;0.297;1.113;1.905;-0.462;-4.0;3.8;25.9;60.69;6904;2018-04-16 23:34:47:665
-2.546;-7.518;-0.158;-4.16;-8.869;-0.455;1.614;1.351;0.297;1.113;1.905;-0.462;-3.7;4.5;25.6;60.69;6914;2018-04-16 23:34:47:675
-3.103;-8.03;-1.002;-4.065;-8.916;-0.376;0.963;0.886;-0.626;1.296;1.436;-0.445;-3.7;4.5;25.6;60.69;6924;2018-04-16 23:34:47:685
-3.103;-8.03;-1.002;-4.065;-8.916;-0.376;0.963;0.886;-0.626;1.296;1.436;-0.445;-3.7;4.5;25.6;56.58;6933;2018-04-16 23:34:47:694
-3.33;-8.929;-1.172;-4.002;-8.951;-0.162;0.59;-0.171;-0.986;1.411;0.364;-0.321;-4.0;4.9;25.9;56.58;6944;2018-04-16 23:34:47:705
-3.578;-9.254;-1.037;-4.002;-8.951;-0.162;0.59;-0.171;-0.986;1.245;-0.258;-0.241;-3.8;5.6;25.3;56.58;6954;2018-04-16 23:34:47:715
-3.846;-8.976;-0.737;-3.963;-8.97;0.072;0.236;-0.19;-0.976;1.102;-0.527;-0.183;-3.8;5.6;25.3;56.58;6964;2018-04-16 23:34:47:725
-3.846;-8.976;-0.737;-3.963;-8.97;0.072;0.236;-0.19;-0.976;0.949;-0.748;-0.106;-3.7;6.0;25.1;56.58;6973;2018-04-16 23:34:47:734
-4.165;-8.692;-0.08;-3.944;-8.974;0.293;-0.221;0.282;-0.373;0.925;-0.701;-0.062;-3.7;6.0;25.1;56.58;6983;2018-04-16 23:34:47:744
-4.165;-8.692;-0.08;-3.944;-8.974;0.293;-0.221;0.282;-0.373;0.925;-0.701;-0.062;-3.7;6.0;25.1;56.58;6993;2018-04-16 23:34:47:754
-4.087;-8.446;0.591;-3.936;-8.969;0.494;-0.052;0.584;0.275;0.914;-0.495;-0.034;-3.4;6.4;24.9;56.58;7004;2018-04-16 23:34:47:765
-3.754;-8.322;1.032;-3.936;-8.969;0.494;-0.052;0.584;0.275;0.853;0.045;-0.006;-3.4;6.4;24.9;56.58;7014;2018-04-16 23:34:47:775
-3.754;-8.322;1.032;-3.941;-8.959;0.618;0.532;0.774;0.512;0.755;0.465;0.028;-3.1;7.4;25.7;56.58;7024;2018-04-16 23:34:47:785
-3.139;-7.986;1.146;-3.941;-8.959;0.618;0.532;0.774;0.512;0.63;0.947;0.056;-2.7;7.7;24.9;56.58;7034;2018-04-16 23:34:47:795
-3.139;-7.986;1.146;-3.963;-8.946;0.659;0.786;0.999;0.481;0.63;0.947;0.056;-2.7;7.7;24.9;56.58;7043;2018-04-16 23:34:47:804
-3.628;-8.362;0.924;-3.963;-8.946;0.659;0.786;0.999;0.481;0.735;1.091;0.065;-2.8;7.9;24.6;56.58;7053;2018-04-16 23:34:47:814
-4.197;-9.365;0.83;-3.991;-8.927;0.735;-0.124;-0.127;0.016;0.968;0.929;0.099;-2.9;8.4;24.6;56.58;7063;2018-04-16 23:34:47:824
-4.197;-9.365;0.83;-3.991;-8.927;0.735;-0.124;-0.127;0.016;1.39;0.535;0.182;-2.9;8.4;24.6;56.58;7073;2018-04-16 23:34:47:834
-3.876;-9.647;0.628;-4.032;-8.89;0.938;0.155;-0.757;-0.309;1.558;0.376;0.224;-2.8;8.6;24.3;56.58;7084;2018-04-16 23:34:47:845
-3.494;-9.402;0.072;-4.051;-8.869;1.049;0.557;-0.533;-0.978;1.583;0.313;0.235;-2.8;8.6;24.3;56.58;7094;2018-04-16 23:34:47:855
-3.494;-9.402;0.072;-4.051;-8.869;1.049;0.557;-0.533;-0.978;1.583;0.313;0.235;-2.8;8.6;24.3;56.58;7104;2018-04-16 23:34:47:865
-2.966;-8.837;-0.378;-4.091;-8.818;1.298;1.161;0.081;-1.779;1.503;0.083;0.241;-2.7;9.2;24.5;56.58;7113;2018-04-16 23:34:47:874
-2.977;-8.692;-0.931;-4.091;-8.818;1.298;1.161;0.081;-1.779;1.45;-0.323;0.209;-2.7;10.0;24.3;56.58;7124;2018-04-16 23:34:47:885
-2.977;-8.692;-0.931;-4.107;-8.764;1.582;0.909;-0.165;-2.743;1.45;-0.323;0.209;-2.7;10.0;24.3;56.58;7134;2018-04-16 23:34:47:895
-3.288;-9.281;-1.39;-4.098;-8.73;1.778;0.81;-0.551;-3.168;1.631;-1.214;0.156;-2.9;10.7;24.0;56.58;7143;2018-04-16 23:34:47:904
-3.288;-9.281;-1.39;-4.098;-8.73;1.778;0.81;-0.551;-3.168;1.684;-1.577;0.095;-2.9;10.7;24.0;56.58;7154;2018-04-16 23:34:47:915
-2.64;-10.599;-2.99;-4.052;-8.657;2.194;1.412;-1.942;-5.184;1.658;-1.593;0.081;-2.9;11.6;24.2;56.58;7164;2018-04-16 23:34:47:925
-2.64;-10.599;-2.99;-4.052;-8.657;2.194;1.412;-1.942;-5.184;1.658;-1.593;0.081;-2.9;11.6;24.2;56.58;7174;2018-04-16 23:34:47:935
-1.526;-11.879;-2.984;-4.014;-8.613;2.423;2.488;-3.266;-5.408;0.706;-0.283;-0.067;-2.9;12.1;23.3;56.58;7184;2018-04-16 23:34:47:945
-1.526;-11.879;-2.984;-4.014;-8.613;2.423;2.488;-3.266;-5.408;-0.534;1.545;-0.233;-2.9;12.1;23.3;56.58;7194;2018-04-16 23:34:47:955
-2.012;-12.407;-0.366;-4.037;-8.644;2.269;2.025;-3.763;-2.636;-0.534;1.545;-0.233;-3.1;12.5;23.3;56.58;7204;2018-04-16 23:34:47:965
-2.012;-12.407;-0.366;-4.037;-8.644;2.269;2.025;-3.763;-2.636;-0.668;1.523;-0.376;-3.1;12.5;23.3;56.58;7214;2018-04-16 23:34:47:975
-1.711;-12.525;-0.184;-4.014;-8.706;2.063;2.304;-3.819;-2.248;-0.562;0.992;-0.486;-3.1;12.5;23.3;56.58;7224;2018-04-16 23:34:47:985
-1.711;-12.525;-0.184;-4.014;-8.706;2.063;2.304;-3.819;-2.248;-0.389;0.358;-0.589;-3.4;12.8;23.2;56.58;7234;2018-04-16 23:34:47:995
-1.583;-12.761;-0.353;-3.903;-8.769;2.008;2.179;-4.089;-2.513;-0.242;-0.287;-0.671;-3.4;13.0;23.0;56.58;7244;2018-04-16 23:34:48:005
-2.033;-12.88;-0.998;-3.903;-8.769;2.008;2.179;-4.089;-2.513;-0.242;-0.287;-0.671;-3.4;13.0;23.0;52.95;7254;2018-04-16 23:34:48:015
-2.033;-12.88;-0.998;-3.749;-8.831;2.031;1.055;-3.759;-4.022;-0.318;-1.048;-0.65;-3.4;13.4;22.9;52.95;7263;2018-04-16 23:34:48:024
-3.944;-11.836;-3.179;-3.749;-8.831;2.031;1.055;-3.759;-4.022;-0.992;-0.695;-0.573;-3.4;13.4;22.9;52.95;7274;2018-04-16 23:34:48:035
-5.693;-10.624;-3.17;-3.624;-8.914;1.891;-1.708;-2.056;-5.306;-1.699;-0.081;-0.454;-3.5;13.8;22.7;52.95;7284;2018-04-16 23:34:48:045
-5.693;-10.624;-3.17;-3.624;-8.914;1.891;-1.708;-2.056;-5.306;-2.338;0.436;-0.327;-3.5;13.8;22.7;52.95;7293;2018-04-16 23:34:48:054
-5.674;-10.004;-1.347;-3.578;-9.016;1.444;-2.097;-0.988;-2.79;-2.754;0.599;-0.272;-3.7;14.2;22.6;52.95;7303;2018-04-16 23:34:48:064
-6.588;-9.916;-0.909;-3.578;-9.016;1.444;-2.097;-0.988;-2.79;-3.005;0.492;-0.217;-3.7;14.2;22.6;52.95;7314;2018-04-16 23:34:48:075
-6.588;-9.916;-0.909;-3.551;-9.1;0.864;-3.219;-0.796;-1.736;-3.178;0.292;-0.134;-3.9;14.4;22.5;52.95;7324;2018-04-16 23:34:48:085
-6.419;-9.78;-0.024;-3.551;-9.1;0.864;-3.219;-0.796;-1.736;-3.178;0.292;-0.134;-3.9;14.4;22.5;52.95;7334;2018-04-16 23:34:48:095
-5.555;-10.744;3.397;-3.537;-9.142;0.275;-2.27;-1.223;1.698;-3.225;-0.114;-0.07;-4.1;14.5;22.6;52.95;7343;2018-04-16 23:34:48:104
-5.555;-10.744;3.397;-3.537;-9.142;0.275;-2.27;-1.223;1.698;-2.98;-0.051;-0.061;-4.1;14.5;22.6;52.95;7354;2018-04-16 23:34:48:115
-5.473;-11.453;5.485;-3.527;-9.146;-0.273;-1.946;-2.306;5.758;-2.754;0.314;-0.017;-4.2;14.5;22.8;52.95;7364;2018-04-16 23:34:48:125
-5.473;-11.453;5.485;-3.527;-9.146;-0.273;-1.946;-2.306;5.758;-2.754;0.314;-0.017;-4.2;14.5;22.8;52.95;7376;2018-04-16 23:34:48:137
-5.763;-11.542;6.139;-3.526;-9.137;-0.506;-2.236;-2.406;6.645;-2.636;0.535;0.015;-4.3;14.4;22.8;52.95;7384;2018-04-16 23:34:48:145
-6.468;-10.94;6.728;-3.526;-9.137;-0.506;-2.236;-2.406;6.645;-2.094;1.787;0.144;-4.5;13.8;23.4;52.95;7393;2018-04-16 23:34:48:154
-6.468;-10.94;6.728;-3.507;-9.067;-1.289;-2.435;-1.411;7.759;-1.836;2.544;0.161;-4.5;13.8;23.4;52.95;7403;2018-04-16 23:34:48:164
-5.434;-9.851;5.296;-3.507;-9.067;-1.289;-2.435;-1.411;7.759;-1.494;3.476;-0.101;-5.9;11.6;24.3;52.95;7414;2018-04-16 23:34:48:175
-6.104;-9.444;2.683;-3.384;-9.027;-1.796;-2.55;-0.591;5.318;-1.288;3.79;-0.191;-5.9;11.6;24.3;52.95;7423;2018-04-16 23:34:48:184
-6.104;-9.444;2.683;-3.303;-9.012;-2.013;-2.717;-0.074;4.394;-1.232;3.864;-0.176;-7.8;10.0;25.6;52.95;7434;2018-04-16 23:34:48:195
-5.491;-8.825;-1.098;-3.303;-9.012;-2.013;-2.717;-0.074;4.394;-1.06;3.69;-0.087;-7.8;10.0;25.6;52.95;7444;2018-04-16 23:34:48:205
-4.404;-8.871;-3.852;-3.136;-8.969;-2.425;-1.745;-0.425;-2.725;-1.06;3.69;-0.087;-9.7;8.5;25.7;52.95;7454;2018-04-16 23:34:48:215
-4.404;-8.871;-3.852;-3.136;-8.969;-2.425;-1.745;-0.425;-2.725;-0.604;1.1;0.061;-9.7;8.5;25.7;52.95;7463;2018-04-16 23:34:48:224
-3.725;-8.256;-1.434;-3.122;-8.943;-2.539;-0.604;0.686;1.105;-0.049;-0.349;-0.093;-10.8;7.9;24.6;52.95;7473;2018-04-16 23:34:48:234
-2.545;-7.816;0.043;-3.122;-8.943;-2.539;-0.604;0.686;1.105;0.054;-0.208;-0.239;-10.8;7.9;24.6;52.95;7484;2018-04-16 23:34:48:245
-2.545;-7.816;0.043;-3.122;-8.943;-2.539;-0.604;0.686;1.105;0.094;-0.017;-0.343;-10.8;7.9;24.6;52.95;7494;2018-04-16 23:34:48:255
-1.873;-7.881;1.595;-3.095;-8.957;-2.524;0.966;1.254;3.277;0.094;-0.017;-0.343;-10.8;7.1;25.1;52.95;7503;2018-04-16 23:34:48:264
-1.778;-7.957;0.955;-2.937;-9.004;-2.543;1.16;1.047;3.498;0.269;1.46;-0.661;-11.2;6.8;26.4;52.95;7514;2018-04-16 23:34:48:275
-1.778;-7.957;0.955;-2.937;-9.004;-2.543;1.16;1.047;3.498;0.254;1.888;-0.746;-11.2;6.8;26.4;52.95;7524;2018-04-16 23:34:48:285
-3.625;-8.368;-2.453;-2.72;-9.056;-2.601;-0.905;0.688;0.148;0.254;1.888;-0.746;-12.3;6.8;25.0;52.95;7533;2018-04-16 23:34:48:294
-3.625;-8.368;-2.453;-2.72;-9.056;-2.601;-0.905;0.688;0.148;-0.205;0.627;-0.391;-12.3;6.8;25.0;52.95;7543;2018-04-16 23:34:48:304
-4.238;-7.246;0.681;-2.656;-9.051;-2.683;-1.581;1.805;3.364;-0.676;0.114;-0.053;-13.0;6.0;25.6;52.95;7554;2018-04-16 23:34:48:315
-4.312;-6.592;0.607;-2.656;-9.051;-2.683;-1.581;1.805;3.364;-0.676;0.114;-0.053;-13.0;6.0;25.6;52.95;7564;2018-04-16 23:34:48:325
-4.312;-6.592;0.607;-2.655;-9.003;-2.84;-1.877;2.84;3.692;-0.933;0.1;0.06;-13.7;5.4;24.3;52.95;7574;2018-04-16 23:34:48:335
-5.278;-5.341;1.191;-2.655;-9.003;-2.84;-1.877;2.84;3.692;-1.013;0.172;0.084;-13.7;5.4;24.3;52.95;7584;2018-04-16 23:34:48:345
-6.373;-4.256;0.96;-2.661;-8.938;-3.032;-3.356;4.274;4.056;-0.97;0.349;0.17;-13.5;5.7;25.2;53.21;7593;2018-04-16 23:34:48:354
-6.373;-4.256;0.96;-2.661;-8.938;-3.032;-3.356;4.274;4.056;-0.97;0.349;0.17;-13.5;5.7;25.2;53.21;7603;2018-04-16 23:34:48:364
-6.697;-3.59;0.478;-2.685;-8.872;-3.202;-4.012;5.282;3.68;-0.755;0.375;0.314;-13.5;5.7;25.2;53.21;7614;2018-04-16 23:34:48:375
-5.811;-3.587;0.33;-2.685;-8.872;-3.202;-4.012;5.282;3.68;-0.42;0.116;0.489;-13.7;4.8;25.7;53.21;7624;2018-04-16 23:34:48:385
-5.811;-3.587;0.33;-2.763;-8.818;-3.284;-2.559;5.126;3.6;-0.42;0.116;0.489;-13.5;5.0;26.2;53.21;7633;2018-04-16 23:34:48:394
-4.286;-3.974;0.054;-2.763;-8.818;-3.284;-2.559;5.126;3.6;-0.018;-0.182;0.629;-13.5;5.0;26.2;53.21;7644;2018-04-16 23:34:48:405
-2.964;-4.56;-0.881;-2.894;-8.787;-3.254;-0.439;4.487;2.687;0.297;-0.395;0.682;-13.7;4.9;25.5;53.21;7653;2018-04-16 23:34:48:414
-2.964;-4.56;-0.881;-2.976;-8.777;-3.206;0.224;4.026;2.184;0.297;-0.395;0.682;-13.7;4.9;25.5;53.21;7663;2018-04-16 23:34:48:424
-2.272;-5.097;-1.386;-2.976;-8.777;-3.206;0.224;4.026;2.184;0.364;-0.545;0.694;-13.5;5.1;25.5;53.21;7673;2018-04-16 23:34:48:434
-1.256;-6.361;-2.379;-3.142;-8.76;-3.091;1.886;2.399;0.712;0.402;-0.867;0.654;-13.2;5.1;25.7;53.21;7684;2018-04-16 23:34:48:445
-0.693;-8.999;-4.29;-3.142;-8.76;-3.091;1.886;2.399;0.712;0.345;-1.417;0.513;-13.2;5.1;25.7;53.21;7693;2018-04-16 23:34:48:454
-0.693;-8.999;-4.29;-3.316;-8.747;-2.943;2.672;-1.167;-1.977;0.191;-1.79;0.434;-13.7;4.9;25.7;53.21;7703;2018-04-16 23:34:48:464
-0.093;-11.621;-5.966;-3.316;-8.747;-2.943;2.672;-1.167;-1.977;-0.015;-2.044;0.371;-13.7;4.9;25.7;53.21;7714;2018-04-16 23:34:48:475
0.727;-13.885;-7.807;-3.494;-8.721;-2.81;3.815;-4.552;-4.319;-0.015;-2.044;0.371;-14.0;4.8;25.8;53.21;7723;2018-04-16 23:34:48:484
0.727;-13.885;-7.807;-3.494;-8.721;-2.81;3.815;-4.552;-4.319;-0.316;-1.983;0.226;-14.0;4.8;25.8;53.21;7733;2018-04-16 23:34:48:494
1.581;-13.926;-8.462;-3.626;-8.686;-2.754;5.207;-5.24;-5.709;-0.522;-1.74;0.116;-14.1;4.8;25.8;53.21;7743;2018-04-16 23:34:48:504
1.581;-13.926;-8.462;-3.626;-8.686;-2.754;5.207;-5.24;-5.709;-0.656;-1.438;-0.038;-14.1;4.8;25.8;53.21;7753;2018-04-16 23:34:48:514
0.674;-12.935;-5.462;-3.677;-8.661;-2.764;3.857;-3.706;-1.564;-0.55;-1.168;-0.169;-14.0;4.8;25.8;53.21;7764;2018-04-16 23:34:48:525
-0.877;-11.213;-2.605;-3.677;-8.661;-2.764;3.857;-3.706;-1.564;0.1;-0.277;-0.392;-13.9;4.7;26.0;53.21;7773;2018-04-16 23:34:48:534
-2.327;-9.586;-2.977;-3.619;-8.696;-2.729;1.704;-1.304;0.354;0.348;0.351;-0.473;-13.9;4.7;26.0;53.21;7784;2018-04-16 23:34:48:545
-2.327;-9.586;-2.977;-3.619;-8.696;-2.729;1.704;-1.304;0.354;0.393;0.668;-0.501;-13.8;4.7;26.2;53.21;7794;2018-04-16 23:34:48:555
-3.886;-8.764;-5.72;-3.5;-8.751;-2.71;-0.386;-0.013;-3.01;0.393;0.668;-0.501;-13.8;4.7;26.2;53.21;7803;2018-04-16 23:34:48:564
-4.823;-8.747;-8.043;-3.5;-8.751;-2.71;-0.386;-0.013;-3.01;0.293;0.494;-0.368;-13.7;4.8;26.1;53.21;7814;2018-04-16 23:34:48:575
-4.823;-8.747;-8.043;-3.433;-8.786;-2.682;-1.468;0.03;-5.374;0.21;-0.022;-0.275;-13.7;4.8;26.1;53.21;7824;2018-04-16 23:34:48:585
-4.86;-8.8;-6.456;-3.433;-8.786;-2.682;-1.468;0.03;-5.374;0.165;-0.858;-0.259;-13.5;4.7;26.3;53.21;7833;2018-04-16 23:34:48:594
-5.152;-8.856;-4.011;-3.429;-8.813;-2.595;-1.553;0.018;-1.848;0.228;-1.026;-0.324;-13.5;4.7;26.3;53.21;7844;2018-04-16 23:34:48:605
-5.152;-8.856;-4.011;-3.429;-8.813;-2.595;-1.553;0.018;-1.848;0.203;-1.062;-0.341;-13.3;4.8;26.6;53.21;7854;2018-04-16 23:34:48:615
-6.308;-9.123;-3.448;-3.426;-8.845;-2.49;-2.881;-0.278;-0.957;0.203;-1.062;-0.341;-13.3;4.8;26.6;53.21;7863;2018-04-16 23:34:48:624
-6.308;-9.123;-3.448;-3.426;-8.845;-2.49;-2.881;-0.278;-0.957;0.048;-1.058;-0.252;-13.2;4.8;26.7;53.21;7874;2018-04-16 23:34:48:635
-7.211;-9.959;-0.831;-3.449;-8.85;-2.438;-3.93;-1.552;1.908;-0.072;-0.915;-0.122;-12.9;4.8;26.9;53.21;7884;2018-04-16 23:34:48:645
-7.268;-11.436;-0.863;-3.459;-8.851;-2.42;-3.808;-2.585;1.557;0.016;-0.523;-0.015;-12.9;4.8;26.9;53.21;7899;2018-04-16 23:34:48:660
-7.268;-11.436;-0.863;-3.459;-8.851;-2.42;-3.808;-2.585;1.557;0.071;0.087;-0.007;-12.6;4.9;27.1;53.21;7903;2018-04-16 23:34:48:664
-6.701;-12.579;-1.178;-3.454;-8.855;-2.414;-3.247;-3.724;1.236;0.071;0.087;-0.007;-12.6;4.9;27.1;58.5;7913;2018-04-16 23:34:48:674
-4.185;-8.181;2.243;-3.454;-8.855;-2.414;-3.247;-3.724;1.236;0.183;1.139;-0.057;-12.3;5.0;27.4;58.5;7923;2018-04-16 23:34:48:684
-4.185;-8.181;2.243;-3.359;-8.881;-2.454;-0.473;2.115;5.22;0.183;1.139;-0.057;-12.3;5.0;27.4;58.5;7934;2018-04-16 23:34:48:695
-3.83;-5.412;3.432;-3.359;-8.881;-2.454;-0.473;2.115;5.22;0.564;1.903;-0.389;-12.1;5.0;27.4;58.5;7944;2018-04-16 23:34:48:705
-4.96;-4.322;2.255;-3.175;-8.946;-2.462;-1.785;4.624;4.718;0.748;2.056;-0.469;-11.9;5.2;27.6;58.5;7954;2018-04-16 23:34:48:715
-5.197;-4.603;1.028;-3.094;-8.976;-2.454;-1.785;4.624;4.718;0.74;1.889;-0.297;-11.9;5.2;27.6;58.5;7964;2018-04-16 23:34:48:725
-5.197;-4.603;1.028;-3.094;-8.976;-2.454;-2.606;3.512;2.958;0.732;1.581;-0.048;-11.7;5.4;27.8;58.5;7975;2018-04-16 23:34:48:736
-6.043;-6.577;0.29;-3.048;-9.005;-2.405;-2.606;3.512;2.958;0.71;1.098;0.337;-11.7;5.4;27.8;58.5;7984;2018-04-16 23:34:48:745
-6.043;-6.577;0.29;-3.048;-9.005;-2.405;-3.287;1.274;2.5;0.71;1.098;0.337;-11.7;5.4;27.8;58.5;7994;2018-04-16 23:34:48:755
-6.564;-8.394;0.218;-3.124;-8.999;-2.329;-3.287;1.274;2.5;0.643;0.809;0.553;-11.7;5.4;27.7;58.5;8004;2018-04-16 23:34:48:765
-6.73;-9.795;0.512;-3.124;-8.999;-2.329;-3.553;-0.808;2.819;0.45;0.513;0.789;-11.8;5.6;27.6;58.5;8013;2018-04-16 23:34:48:774
-6.153;-10.172;0.043;-3.251;-8.963;-2.295;-3.553;-0.808;2.819;0.274;0.447;0.864;-11.8;5.6;27.6;58.5;8023;2018-04-16 23:34:48:784
-6.153;-10.172;0.043;-3.251;-8.963;-2.295;-2.671;-1.201;2.178;0.086;0.363;0.896;-12.0;5.7;27.6;58.5;8033;2018-04-16 23:34:48:794
-5.313;-9.719;-0.494;-3.404;-8.9;-2.316;-2.671;-1.201;2.178;-0.119;0.151;0.943;-12.0;5.7;27.6;58.5;8043;2018-04-16 23:34:48:804
-4.277;-8.966;-0.673;-3.404;-8.9;-2.316;-1.084;-0.341;1.665;-0.397;-0.331;0.963;-12.1;5.9;27.4;58.5;8053;2018-04-16 23:34:48:814
-4.277;-8.966;-0.673;-3.6;-8.814;-2.349;-0.415;0.049;1.705;-0.538;-0.706;0.929;-12.1;5.9;27.4;58.5;8063;2018-04-16 23:34:48:824
-3.705;-8.666;-0.706;-3.6;-8.814;-2.349;-0.415;0.049;1.705;-0.6;-1.409;0.866;-12.3;6.2;27.4;58.5;8073;2018-04-16 23:34:48:834
-2.407;-9.22;-1.227;-3.818;-8.729;-2.325;0.903;-0.197;1.147;-0.6;-1.409;0.866;-12.3;6.2;27.4;58.5;8083;2018-04-16 23:34:48:844
-2.407;-9.22;-1.227;-3.818;-8.729;-2.325;0.903;-0.197;1.147;-0.078;-2.904;0.799;-12.5;6.4;27.3;58.5;8094;2018-04-16 23:34:48:855
-1.326;-9.549;-0.219;-4.068;-8.693;-2.014;2.742;-0.857;1.795;0.364;-3.847;0.622;-12.5;6.4;27.3;58.5;8103;2018-04-16 23:34:48:864
-1.443;-9.787;0.801;-4.068;-8.693;-2.014;2.742;-0.857;1.795;0.693;-4.459;0.274;-12.5;6.6;27.4;58.5;8114;2018-04-16 23:34:48:875
-1.443;-9.787;0.801;-4.249;-8.708;-1.514;2.862;-1.227;2.683;0.693;-4.459;0.274;-12.5;6.6;27.4;58.5;8123;2018-04-16 23:34:48:884
-1.033;-10.196;1.544;-4.249;-8.708;-1.514;2.862;-1.227;2.683;0.986;-4.432;0.215;-12.4;6.8;27.4;58.5;8134;2018-04-16 23:34:48:895
-0.02;-9.371;2.212;-4.373;-8.73;-0.914;4.112;-1.05;2.78;1.432;-4.278;0.254;-12.4;6.8;27.4;58.5;8143;2018-04-16 23:34:48:904
-0.02;-9.371;2.212;-4.373;-8.73;-0.914;4.112;-1.05;2.78;1.952;-3.753;0.099;-11.1;7.5;27.7;58.5;8153;2018-04-16 23:34:48:914
-0.854;-8.928;3.146;-4.362;-8.779;-0.252;3.509;-0.149;3.398;2.341;-2.177;-0.204;-11.1;7.5;27.7;58.5;8164;2018-04-16 23:34:48:925
-1.729;-9.134;0.54;-4.362;-8.779;-0.252;3.509;-0.149;3.398;2.064;1.213;-0.7;-8.8;8.9;27.6;58.5;8173;2018-04-16 23:34:48:934
-1.729;-9.134;0.54;-4.222;-8.851;-0.005;2.211;-0.419;0.003;1.489;2.641;-0.955;-8.8;8.9;27.6;58.5;8184;2018-04-16 23:34:48:945
-2.649;-9.317;-0.456;-4.222;-8.851;-0.005;2.211;-0.419;0.003;1.07;3.266;-0.946;-8.4;10.1;28.1;58.5;8193;2018-04-16 23:34:48:954
-2.649;-9.317;-0.456;-4.047;-8.932;-0.083;1.215;0.111;-0.818;1.07;3.266;-0.946;-8.4;10.1;28.1;58.5;8203;2018-04-16 23:34:48:964
-2.676;-8.39;-1.541;-4.047;-8.932;-0.083;1.215;0.111;-0.818;0.969;3.097;-0.674;-8.7;10.9;28.0;58.5;8213;2018-04-16 23:34:48:974
-2.592;-8.54;-2.237;-3.929;-8.985;-0.115;1.337;0.444;-2.122;1.104;2.272;-0.567;-8.7;10.9;28.0;58.5;8223;2018-04-16 23:34:48:984
-2.963;-9.232;-2.18;-3.929;-8.985;-0.115;1.337;0.444;-2.122;1.112;0.61;-0.494;-9.9;11.4;27.0;55.8;8234;2018-04-16 23:34:48:995
-2.963;-9.232;-2.18;-3.837;-9.025;0.014;0.796;-0.378;-1.976;0.94;-0.304;-0.38;-9.9;11.4;27.0;55.8;8244;2018-04-16 23:34:49:005
-3.106;-9.578;-1.159;-3.837;-9.025;0.014;0.796;-0.378;-1.976;0.94;-0.304;-0.38;-9.7;12.1;26.8;55.8;8254;2018-04-16 23:34:49:015
-3.165;-9.348;-0.103;-3.788;-9.043;0.197;0.6;-0.427;-0.622;0.558;-1.104;-0.176;-9.7;12.1;26.8;55.8;8263;2018-04-16 23:34:49:024
-3.165;-9.348;-0.103;-3.788;-9.043;0.197;0.6;-0.427;-0.622;0.28;-1.388;-0.029;-9.1;13.0;28.2;55.8;8273;2018-04-16 23:34:49:034
-3.349;-8.833;0.533;-3.769;-9.046;0.354;0.42;0.213;0.179;0.28;-1.388;-0.029;-9.1;13.0;28.2;55.8;8283;2018-04-16 23:34:49:044
-3.349;-8.833;0.533;-3.769;-9.046;0.354;0.42;0.213;0.179;0.28;-1.425;0.0;-9.1;13.1;26.6;55.8;8293;2018-04-16 23:34:49:054
-3.888;-8.448;0.702;-3.759;-9.043;0.521;-0.17;0.649;0.237;0.39;-1.349;0.0;-8.3;13.8;26.5;55.8;8304;2018-04-16 23:34:49:065
-3.956;-8.357;0.907;-3.759;-9.043;0.521;-0.17;0.649;0.237;0.574;-0.933;-0.005;-8.3;13.8;26.5;55.8;8314;2018-04-16 23:34:49:075
-3.757;-8.534;1.365;-3.747;-9.035;0.701;-0.094;0.548;0.488;0.602;-0.623;-0.015;-8.4;13.1;26.5;55.8;8323;2018-04-16 23:34:49:084
-3.757;-8.534;1.365;-3.747;-9.035;0.701;-0.094;0.548;0.488;0.602;-0.623;-0.015;-8.4;13.1;26.5;55.8;8333;2018-04-16 23:34:49:094
-3.528;-8.642;1.856;-3.738;-9.027;0.837;0.21;0.386;1.019;0.617;-0.055;-0.026;-8.4;13.1;26.5;55.8;8344;2018-04-16 23:34:49:105
-3.528;-8.642;1.856;-3.738;-9.027;0.837;0.21;0.386;1.019;0.622;0.345;-0.026;-7.7;13.4;27.5;55.8;8354;2018-04-16 23:34:49:115
-3.815;-9.067;1.501;-3.744;-9.017;0.916;-0.071;-0.049;0.585;0.599;0.803;0.005;-7.5;13.8;27.1;55.8;8363;2018-04-16 23:34:49:124
-3.815;-9.067;1.501;-3.744;-9.017;0.916;-0.071;-0.049;0.585;0.599;0.803;0.005;-7.5;13.8;27.1;55.8;8374;2018-04-16 23:34:49:135
-4.017;-9.184;0.934;-3.762;-9.005;0.965;-0.255;-0.18;-0.031;0.689;0.924;0.005;-7.7;13.7;26.9;55.8;8384;2018-04-16 23:34:49:145
-4.258;-9.249;0.406;-3.762;-9.005;0.965;-0.255;-0.18;-0.031;0.946;0.727;-0.022;-7.7;13.7;26.9;55.8;8394;2018-04-16 23:34:49:155
-4.258;-9.249;0.406;-3.773;-8.982;1.123;-0.394;-0.292;-0.764;1.275;0.371;-0.015;-7.3;13.8;27.1;55.8;8404;2018-04-16 23:34:49:165
-3.555;-9.098;0.182;-3.773;-8.982;1.123;-0.394;-0.292;-0.764;1.497;0.027;0.045;-7.3;13.8;27.1;55.8;8414;2018-04-16 23:34:49:175
-2.993;-8.715;-0.778;-3.779;-8.944;1.375;0.704;0.073;-1.685;1.497;0.027;0.045;-7.2;14.0;27.1;55.8;8423;2018-04-16 23:34:49:184
-2.993;-8.715;-0.778;-3.779;-8.944;1.375;0.704;0.073;-1.685;1.415;-0.227;0.013;-7.2;14.0;27.1;55.8;8433;2018-04-16 23:34:49:194
-3.045;-8.671;-1.629;-3.769;-8.905;1.635;0.723;0.234;-3.264;1.362;-0.557;0.007;-7.3;14.6;26.9;55.8;8443;2018-04-16 23:34:49:204
-3.045;-8.671;-1.629;-3.769;-8.905;1.635;0.723;0.234;-3.264;1.319;-0.94;-0.002;-7.3;14.6;26.9;55.8;8453;2018-04-16 23:34:49:214
-3.347;-9.316;-2.063;-3.731;-8.865;1.91;0.384;-0.45;-3.973;1.212;-1.201;-0.015;-7.5;15.2;26.5;55.8;8463;2018-04-16 23:34:49:224
-3.385;-10.527;-2.176;-3.731;-8.865;1.91;0.384;-0.45;-3.973;0.827;-1.093;0.007;-7.5;15.2;26.5;55.8;8474;2018-04-16 23:34:49:235
-3.385;-10.527;-2.176;-3.691;-8.833;2.125;0.386;-2.142;-3.952;0.827;-1.093;0.007;-7.7;15.7;26.2;55.8;8483;2018-04-16 23:34:49:244
-2.869;-11.65;-0.664;-3.691;-8.833;2.125;0.386;-2.142;-3.952;0.114;-0.165;0.055;-7.7;15.7;26.2;55.8;8493;2018-04-16 23:34:49:254
-2.427;-11.91;0.377;-3.711;-8.835;2.083;1.284;-3.075;-1.706;-0.327;0.612;0.044;-7.8;16.2;25.9;55.8;8504;2018-04-16 23:34:49:265
-2.427;-11.91;0.377;-3.711;-8.835;2.083;1.284;-3.075;-1.706;-0.618;1.221;-0.071;-7.8;16.2;25.9;55.8;8513;2018-04-16 23:34:49:274
-1.797;-12.079;0.405;-3.744;-8.865;1.888;1.947;-3.214;-1.484;-0.618;1.221;-0.071;-7.8;16.2;25.9;55.8;8524;2018-04-16 23:34:49:285
-0.837;-12.007;0.382;-3.744;-8.865;1.888;1.947;-3.214;-1.484;-0.621;1.14;-0.162;-7.8;16.7;25.7;55.8;8533;2018-04-16 23:34:49:294
-0.837;-12.007;0.382;-3.718;-8.903;1.754;3.103;-3.101;-1.101;-0.419;0.335;-0.314;-7.7;17.0;25.4;55.8;8543;2018-04-16 23:34:49:304
-0.711;-12.409;0.95;-3.718;-8.903;1.754;3.103;-3.101;-1.101;-0.057;-0.478;-0.464;-7.7;17.0;25.4;53.56;8554;2018-04-16 23:34:49:315
-1.366;-12.541;0.594;-3.619;-8.939;1.78;2.253;-3.602;-1.186;-0.057;-0.478;-0.464;-7.6;17.4;25.2;53.56;8563;2018-04-16 23:34:49:324
-1.366;-12.541;0.594;-3.619;-8.939;1.78;2.253;-3.602;-1.186;0.166;-1.097;-0.414;-7.6;17.4;25.2;53.56;8574;2018-04-16 23:34:49:335
-3.312;-11.316;-0.651;-3.505;-8.96;1.895;0.193;-2.356;-2.546;0.16;-1.352;-0.365;-7.6;17.7;25.0;53.56;8584;2018-04-16 23:34:49:345
-6.197;-10.828;-4.409;-3.505;-8.96;1.895;0.193;-2.356;-2.546;-0.227;-1.024;-0.346;-7.6;17.7;25.0;53.56;8593;2018-04-16 23:34:49:354
-6.197;-10.828;-4.409;-3.397;-8.988;1.96;-3.554;-1.71;-6.916;-0.927;-0.142;-0.282;-7.5;18.0;24.9;53.56;8604;2018-04-16 23:34:49:365
-7.517;-10.248;-4.094;-3.397;-8.988;1.96;-3.554;-1.71;-6.916;-1.785;0.904;-0.162;-7.5;18.0;24.9;53.56;8614;2018-04-16 23:34:49:375
-6.055;-9.796;-0.769;-3.4;-9.063;1.575;-3.184;-0.794;-3.412;-2.418;1.651;-0.093;-7.5;18.4;24.8;53.56;8623;2018-04-16 23:34:49:384
-6.055;-9.796;-0.769;-3.4;-9.063;1.575;-3.184;-0.794;-3.412;-2.737;1.941;-0.094;-7.5;18.4;24.8;53.56;8634;2018-04-16 23:34:49:395
-5.657;-9.591;-0.287;-3.43;-9.138;0.952;-2.227;-0.453;-1.239;-2.837;1.706;-0.098;-7.6;18.6;24.8;53.56;8643;2018-04-16 23:34:49:404
-4.537;-9.244;0.506;-3.43;-9.138;0.952;-2.227;-0.453;-1.239;-2.797;1.029;-0.094;-7.6;18.6;24.8;53.56;8653;2018-04-16 23:34:49:414
-4.537;-9.244;0.506;-3.427;-9.181;0.378;-0.842;-0.032;0.665;-2.662;0.254;-0.145;-7.8;18.7;24.8;53.56;8663;2018-04-16 23:34:49:424
-4.049;-9.61;2.818;-3.427;-9.181;0.378;-0.842;-0.032;0.665;-2.5;-0.215;-0.177;-7.8;18.7;24.8;53.56;8673;2018-04-16 23:34:49:434
-4.521;-10.313;4.238;-3.395;-9.2;-0.07;-0.934;-0.892;4.002;-2.382;-0.23;-0.169;-8.0;18.6;24.9;53.56;8683;2018-04-16 23:34:49:444
-4.521;-10.313;4.238;-3.395;-9.2;-0.07;-0.934;-0.892;4.002;-2.287;0.045;-0.123;-8.0;18.6;24.9;53.56;8693;2018-04-16 23:34:49:454
-5.04;-10.772;4.444;-3.372;-9.195;-0.495;-1.667;-1.576;4.939;-2.219;0.426;-0.065;-8.1;18.4;25.0;53.56;8703;2018-04-16 23:34:49:464
-6.039;-11.218;5.471;-3.372;-9.195;-0.495;-1.667;-1.576;4.939;-2.219;0.426;-0.065;-8.1;18.4;25.0;53.56;8714;2018-04-16 23:34:49:475
-6.488;-11.231;6.352;-3.359;-9.164;-0.95;-2.864;-2.044;6.921;-2.084;1.214;0.035;-8.4;17.0;26.0;53.56;8724;2018-04-16 23:34:49:485
-6.488;-11.231;6.352;-3.359;-9.164;-0.95;-2.864;-2.044;6.921;-1.775;2.279;0.136;-8.4;17.0;26.0;53.56;8734;2018-04-16 23:34:49:495
-5.957;-10.59;4.665;-3.326;-9.115;-1.424;-2.63;-1.475;6.089;-1.561;2.748;0.099;-9.3;14.6;26.7;53.56;8744;2018-04-16 23:34:49:505
-6.165;-9.993;2.587;-3.326;-9.115;-1.424;-2.63;-1.475;6.089;-1.399;2.988;-0.018;-9.3;14.6;26.7;53.56;8754;2018-04-16 23:34:49:515
-6.165;-9.993;2.587;-3.226;-9.069;-1.875;-2.65;-1.426;0.206;-1.399;2.988;-0.018;-10.7;13.2;27.9;53.56;8763;2018-04-16 23:34:49:524
-4.498;-10.613;-4.988;-3.226;-9.069;-1.875;-2.65;-1.426;0.206;-1.051;2.085;0.037;-10.7;13.2;27.9;53.56;8773;2018-04-16 23:34:49:534
-3.371;-10.135;-3.8;-3.188;-9.033;-2.099;-0.183;-1.102;-1.7;-0.615;0.6;0.084;-12.1;11.8;28.1;53.56;8784;2018-04-16 23:34:49:545
-3.371;-10.135;-3.8;-3.188;-9.033;-2.099;-0.183;-1.102;-1.7;-0.32;-0.071;0.026;-12.1;11.8;28.1;53.56;8793;2018-04-16 23:34:49:554
-2.861;-8.763;0.101;-3.175;-9.028;-2.141;0.314;0.265;2.242;-0.204;0.48;-0.204;-12.1;10.8;29.1;53.56;8803;2018-04-16 23:34:49:564
-3.887;-8.219;1.05;-3.175;-9.028;-2.141;0.314;0.265;2.242;-0.255;1.437;-0.335;-12.1;10.8;29.1;53.56;8814;2018-04-16 23:34:49:575
-3.887;-8.219;1.05;-3.055;-9.039;-2.267;-1.049;1.073;3.063;-0.255;1.437;-0.335;-12.1;10.8;29.1;53.56;8823;2018-04-16 23:34:49:584
-4.221;-7.721;0.385;-3.055;-9.039;-2.267;-1.049;1.073;3.063;-0.315;2.32;-0.347;-13.1;10.0;29.3;53.56;8834;2018-04-16 23:34:49:595
-4.407;-7.536;-0.549;-2.865;-9.042;-2.49;-1.542;1.507;1.94;-0.343;2.805;-0.338;-14.1;10.2;29.7;53.56;8843;2018-04-16 23:34:49:604
-4.755;-7.4;-0.997;-2.865;-9.042;-2.49;-1.542;1.507;1.94;-0.07;1.703;-0.308;-14.1;10.2;29.7;53.56;8853;2018-04-16 23:34:49:614
-4.755;-7.4;-0.997;-2.707;-9.052;-2.628;-2.42;1.669;1.507;-0.07;1.703;-0.308;-14.1;10.2;29.7;53.56;8864;2018-04-16 23:34:49:625
-5.546;-7.144;-0.765;-2.707;-9.052;-2.628;-2.42;1.669;1.507;-0.068;0.745;-0.182;-16.0;8.6;28.4;53.56;8873;2018-04-16 23:34:49:634
-4.672;-5.728;0.839;-2.668;-9.046;-2.688;-2.004;3.318;3.527;-0.315;0.238;-0.015;-16.5;9.0;28.4;53.56;8884;2018-04-16 23:34:49:645
-4.305;-5.112;0.838;-2.668;-9.046;-2.688;-2.004;3.318;3.527;-0.784;0.22;0.05;-16.5;9.0;28.4;53.94;8894;2018-04-16 23:34:49:655
-4.305;-5.112;0.838;-2.666;-8.999;-2.842;-1.929;3.914;3.78;-0.965;0.338;0.092;-16.6;8.2;28.3;53.94;8903;2018-04-16 23:34:49:664
-5.132;-4.845;0.467;-2.666;-8.999;-2.842;-1.929;3.914;3.78;-0.965;0.338;0.092;-16.6;8.2;28.3;53.94;8913;2018-04-16 23:34:49:674
-5.312;-4.175;0.042;-2.667;-8.926;-3.064;-2.653;4.532;3.24;-1.118;0.639;0.222;-16.9;8.3;29.4;53.94;8923;2018-04-16 23:34:49:684
-5.312;-4.175;0.042;-2.667;-8.926;-3.064;-2.653;4.532;3.24;-0.951;0.58;0.299;-16.9;8.3;29.4;53.94;8934;2018-04-16 23:34:49:695
-5.222;-3.944;0.171;-2.686;-8.852;-3.257;-2.536;4.907;3.428;-0.951;0.58;0.299;-16.9;7.0;28.7;53.94;8944;2018-04-16 23:34:49:705
-4.806;-3.929;0.25;-2.686;-8.852;-3.257;-2.536;4.907;3.428;-0.485;0.275;0.395;-16.9;7.0;28.7;53.94;8954;2018-04-16 23:34:49:715
-4.806;-3.929;0.25;-2.757;-8.805;-3.322;-1.601;4.772;3.711;-0.176;0.083;0.511;-16.7;7.8;29.6;53.94;8963;2018-04-16 23:34:49:724
-3.417;-4.15;0.192;-2.757;-8.805;-3.322;-1.601;4.772;3.711;0.239;-0.042;0.64;-16.7;7.8;29.6;53.94;8973;2018-04-16 23:34:49:734
-1.957;-4.518;-0.421;-2.872;-8.786;-3.276;0.361;4.458;3.146;0.439;-0.126;0.681;-16.9;7.4;28.8;53.94;8984;2018-04-16 23:34:49:745
-1.957;-4.518;-0.421;-2.872;-8.786;-3.276;0.361;4.458;3.146;0.61;-0.176;0.672;-16.9;7.4;28.8;53.94;8994;2018-04-16 23:34:49:755
-1.359;-5.055;-1.399;-3.004;-8.786;-3.156;1.645;3.73;1.757;0.735;-0.371;0.667;-16.9;7.5;28.7;53.94;9003;2018-04-16 23:34:49:764
-1.359;-5.055;-1.399;-3.004;-8.786;-3.156;1.645;3.73;1.757;0.735;-0.371;0.667;-16.9;7.5;28.7;53.94;9013;2018-04-16 23:34:49:774
0.005;-6.871;-3.762;-3.168;-8.793;-2.969;3.172;1.922;-0.793;0.771;-1.067;0.635;-16.6;7.7;29.0;53.94;9024;2018-04-16 23:34:49:785
0.005;-6.871;-3.762;-3.168;-8.793;-2.969;3.172;1.922;-0.793;0.615;-1.983;0.473;-16.6;7.7;29.0;53.94;9034;2018-04-16 23:34:49:795
0.959;-10.746;-5.089;-3.343;-8.801;-2.746;4.301;-1.945;-2.343;0.615;-1.983;0.473;-16.6;7.7;29.0;53.94;9044;2018-04-16 23:34:49:805
1.053;-12.931;-6.481;-3.416;-8.804;-2.643;4.469;-4.127;-3.838;0.465;-2.341;0.281;-16.8;7.6;29.2;53.94;9053;2018-04-16 23:34:49:814
1.053;-12.931;-6.481;-3.416;-8.804;-2.643;4.469;-4.127;-3.838;0.104;-2.363;0.027;-17.2;7.5;29.2;53.94;9063;2018-04-16 23:34:49:824
1.568;-15.791;-8.495;-3.531;-8.803;-2.49;5.099;-6.988;-6.004;-0.362;-2.088;-0.092;-17.2;7.5;29.2;53.94;9074;2018-04-16 23:34:49:835
1.639;-14.698;-5.926;-3.531;-8.803;-2.49;5.099;-6.988;-6.004;-0.578;-1.71;-0.219;-17.2;7.4;29.3;53.94;9083;2018-04-16 23:34:49:844
1.639;-14.698;-5.926;-3.577;-8.792;-2.464;5.216;-5.906;-3.461;-0.606;-1.213;-0.397;-17.2;7.4;29.3;53.94;9093;2018-04-16 23:34:49:854
-0.054;-12.505;-4.174;-3.577;-8.792;-2.464;5.216;-5.906;-3.461;-0.551;-0.534;-0.534;-17.2;7.4;29.4;53.94;9104;2018-04-16 23:34:49:865
-1.792;-10.582;-5.468;-3.513;-8.802;-2.522;2.316;-2.46;-1.778;-0.458;0.252;-0.613;-17.2;7.4;29.4;53.94;9113;2018-04-16 23:34:49:874
-1.792;-10.582;-5.468;-3.513;-8.802;-2.522;2.316;-2.46;-1.778;-0.194;1.003;-0.615;-17.2;7.4;29.5;53.94;9123;2018-04-16 23:34:49:884
-3.249;-9.491;-9.163;-3.363;-8.829;-2.63;0.114;-0.662;-6.533;0.0;0.753;-0.622;-17.2;7.4;29.5;53.94;9133;2018-04-16 23:34:49:894
-5.301;-9.486;-8.224;-3.363;-8.829;-2.63;0.114;-0.662;-6.533;0.194;0.073;-0.58;-17.1;7.3;29.6;53.94;9144;2018-04-16 23:34:49:905
-5.301;-9.486;-8.224;-3.233;-8.873;-2.644;-2.335;-0.525;-5.056;0.442;-0.591;-0.5;-17.1;7.3;29.6;53.94;9153;2018-04-16 23:34:49:914
-6.165;-8.909;-5.544;-3.202;-8.903;-2.579;-2.963;-0.006;-2.964;0.442;-0.591;-0.5;-16.9;7.4;29.9;53.94;9164;2018-04-16 23:34:49:925
-6.165;-8.909;-5.544;-3.202;-8.903;-2.579;-2.963;-0.006;-2.964;0.568;-1.431;-0.468;-16.9;7.4;29.9;53.94;9173;2018-04-16 23:34:49:934
-9.16;-9.078;-3.321;-3.208;-8.95;-2.403;-5.952;-0.128;-0.918;0.325;-1.71;-0.368;-16.6;7.4;30.1;53.94;9184;2018-04-16 23:34:49:945
-9.555;-10.023;-0.083;-3.208;-8.95;-2.403;-5.952;-0.128;-0.918;-0.054;-1.607;-0.186;-16.6;7.4;30.1;53.94;9193;2018-04-16 23:34:49:954
-9.555;-10.023;-0.083;-3.247;-8.951;-2.345;-6.216;-1.596;2.484;-0.25;-1.129;-0.104;-16.3;7.4;30.5;53.94;9204;2018-04-16 23:34:49:965
-8.618;-12.495;-1.035;-3.247;-8.951;-2.345;-6.216;-1.596;2.484;-0.268;0.011;-0.038;-16.3;7.4;30.5;59.19;9213;2018-04-16 23:34:49:974
-6.741;-13.74;-0.869;-3.236;-8.942;-2.395;-3.505;-4.798;1.525;-0.21;0.853;-0.076;-15.8;7.5;30.8;59.19;9223;2018-04-16 23:34:49:984
-3.773;-9.154;2.212;-3.236;-8.942;-2.395;-3.505;-4.798;1.525;0.048;1.466;-0.169;-15.8;7.5;30.8;59.19;9234;2018-04-16 23:34:49:995
-3.773;-9.154;2.212;-3.133;-8.956;-2.477;-0.005;1.762;5.436;0.048;1.466;-0.169;-15.8;7.5;30.8;59.19;9243;2018-04-16 23:34:50:004
-2.771;-5.544;3.7;-3.133;-8.956;-2.477;-0.005;1.762;5.436;0.254;1.789;-0.286;-15.5;7.6;31.1;59.19;9254;2018-04-16 23:34:50:015
-3.709;-3.364;2.652;-2.971;-8.997;-2.528;-0.738;5.633;5.18;0.391;1.933;-0.4;-15.5;7.6;31.1;59.19;9263;2018-04-16 23:34:50:024
-4.709;-4.55;0.997;-2.971;-8.997;-2.528;-0.738;5.633;5.18;0.44;1.552;-0.235;-15.2;7.6;31.2;59.19;9274;2018-04-16 23:34:50:035
-4.709;-4.55;0.997;-2.856;-9.032;-2.536;-2.124;4.035;3.323;0.44;1.552;0.018;-15.0;7.7;31.5;59.19;9284;2018-04-16 23:34:50:045
-5.492;-5.832;0.566;-2.856;-9.032;-2.536;-2.124;4.035;3.323;0.483;1.148;0.018;-15.0;7.7;31.5;59.19;9293;2018-04-16 23:34:50:054
-6.676;-8.07;0.341;-2.878;-9.038;-2.49;-3.798;0.968;2.831;0.44;0.558;0.415;-14.8;7.8;31.7;59.19;9303;2018-04-16 23:34:50:064
-7.496;-10.224;0.702;-2.878;-9.038;-2.49;-3.798;0.968;2.831;0.235;0.153;0.72;-14.8;7.8;31.7;59.19;9314;2018-04-16 23:34:50:075
-7.496;-10.224;0.702;-3.0;-9.007;-2.458;-4.619;-1.669;3.281;0.073;0.015;0.836;-14.7;7.9;31.9;59.19;9323;2018-04-16 23:34:50:084
-7.293;-10.963;0.885;-3.0;-9.007;-2.458;-4.619;-1.669;3.281;-0.093;-0.057;0.889;-14.7;7.9;31.9;59.19;9333;2018-04-16 23:34:50:094
-6.085;-10.142;0.381;-3.162;-8.948;-2.47;-3.432;-1.645;3.13;-0.217;-0.126;0.886;-14.6;7.9;32.1;59.19;9344;2018-04-16 23:34:50:105
-6.085;-10.142;0.381;-3.162;-8.948;-2.47;-3.432;-1.645;3.13;-0.319;-0.271;0.892;-14.6;7.9;32.1;59.19;9353;2018-04-16 23:34:50:114
-4.878;-8.885;-0.141;-3.341;-8.874;-2.5;-1.537;-0.01;2.359;-0.4;-0.531;0.871;-14.6;8.0;32.3;59.19;9363;2018-04-16 23:34:50:124
-3.936;-7.769;-0.344;-3.341;-8.874;-2.5;-1.537;-0.01;2.359;-0.454;-0.882;0.849;-14.6;8.0;32.3;59.19;9373;2018-04-16 23:34:50:134
-3.936;-7.769;-0.344;-3.536;-8.795;-2.513;-0.205;1.19;2.148;-0.48;-1.285;0.836;-14.6;8.0;32.4;59.19;9383;2018-04-16 23:34:50:144
-3.533;-7.391;-0.166;-3.536;-8.795;-2.513;-0.205;1.19;2.148;-0.512;-1.629;0.817;-14.6;8.0;32.4;59.19;9393;2018-04-16 23:34:50:154
-3.075;-7.327;-0.132;-3.76;-8.71;-2.483;0.685;1.383;2.352;-0.512;-1.629;0.817;-14.7;8.0;32.6;59.19;9404;2018-04-16 23:34:50:165
