sep=;
acc_x;acc_y;acc_z;grav_x;grav_y;grav_z;lin_acc_x;lin_acc_y;lin_acc_z;gyro_x;gyro_y;gyro_z;mag_x;mag_y;mag_z;sound_lvl;time_ms;date_time
-6.82;0.93;5.223;-4.636;2.324;8.323;-2.184;-1.394;-3.101;0.569;-3.049;-0.479;-7.4;-31.2;3.1;47.48;9;2018-04-16 23:01:50:277
-4.503;1.328;7.87;-4.188;2.362;8.547;-0.316;-1.035;-0.677;0.316;-2.409;-0.356;-7.4;-31.2;3.1;47.48;19;2018-04-16 23:01:50:287
-4.503;1.328;7.87;-4.188;2.362;8.547;-0.316;-1.035;-0.677;0.316;-2.409;-0.356;-7.0;-30.8;3.9;47.48;29;2018-04-16 23:01:50:297
-4.079;1.377;9.645;-3.844;2.409;8.694;-0.398;-0.983;0.682;0.43;-2.399;-0.195;-6.8;-31.0;4.2;47.48;39;2018-04-16 23:01:50:307
-4.079;1.377;9.645;-3.844;2.409;8.694;-0.398;-0.983;0.682;0.23;-1.555;-0.296;-6.8;-31.0;4.2;47.48;49;2018-04-16 23:01:50:317
-4.47;0.724;13.422;-3.708;2.406;8.754;-0.762;-1.681;4.668;0.104;-1.52;-0.327;-6.8;-31.0;4.2;47.48;58;2018-04-16 23:01:50:326
-4.47;0.724;13.422;-3.708;2.406;8.754;-0.762;-1.681;4.668;0.104;-1.52;-0.327;-7.3;-31.4;3.5;47.48;68;2018-04-16 23:01:50:336
-6.81;-3.19;8.9;-3.622;2.379;8.797;-3.188;-5.569;0.103;0.031;-0.539;0.116;-7.8;-30.9;3.1;47.48;78;2018-04-16 23:01:50:346
-8.458;-1.985;6.885;-3.622;2.379;8.797;-3.188;-5.569;0.103;0.296;-0.724;0.925;-7.8;-31.0;2.7;47.48;88;2018-04-16 23:01:50:356
-8.458;-1.985;6.885;-3.442;2.498;8.836;-4.607;-3.568;-1.979;0.296;-0.724;0.925;-7.8;-31.0;2.7;47.48;98;2018-04-16 23:01:50:366
-5.924;1.737;6.892;-3.296;2.585;8.867;-2.628;-0.848;-1.975;0.484;-1.487;1.483;-7.6;-31.1;2.6;47.48;109;2018-04-16 23:01:50:377
-5.924;1.737;6.892;-3.296;2.585;8.867;-2.628;-0.848;-1.975;1.102;-2.564;1.274;-7.6;-31.1;2.6;47.48;118;2018-04-16 23:01:50:386
-2.628;2.847;4.439;-2.774;2.853;8.963;0.146;-0.006;-4.524;1.373;-3.429;1.043;-7.2;-31.2;2.7;47.48;128;2018-04-16 23:01:50:396
-0.684;3.834;5.023;-2.022;3.113;9.077;1.287;1.044;-3.311;1.216;-3.94;0.926;-7.1;-31.2;2.9;47.48;139;2018-04-16 23:01:50:407
-0.684;3.834;5.023;-2.022;3.113;9.077;1.287;1.044;-3.311;1.216;-3.94;0.926;-7.1;-31.2;2.9;47.48;149;2018-04-16 23:01:50:417
-0.224;4.289;8.048;-1.634;3.173;9.134;1.411;1.116;-1.086;0.487;-3.669;0.58;-6.7;-31.2;3.3;47.48;158;2018-04-16 23:01:50:426
-0.224;4.289;8.048;-1.634;3.173;9.134;1.411;1.116;-1.086;-0.082;-2.683;0.067;-6.7;-31.2;3.3;47.48;169;2018-04-16 23:01:50:437
-0.28;2.412;9.845;-1.092;3.172;9.215;0.812;-0.76;0.63;-0.031;-2.56;-0.087;-6.4;-31.1;3.5;47.48;179;2018-04-16 23:01:50:447
-0.927;0.86;8.973;-1.092;3.172;9.215;0.812;-0.76;0.63;0.154;-2.788;-0.142;-6.2;-31.1;3.8;47.48;189;2018-04-16 23:01:50:457
-0.927;0.86;8.973;-0.604;3.178;9.258;-1.301;-3.129;-0.44;0.154;-2.788;-0.142;-6.2;-31.1;3.8;47.48;199;2018-04-16 23:01:50:467
-4.256;-1.695;7.896;-0.336;3.232;9.253;-3.92;-4.927;-1.357;0.656;-3.305;0.199;-5.8;-31.1;4.3;47.48;209;2018-04-16 23:01:50:477
-4.256;-1.695;7.896;-0.336;3.232;9.253;-3.92;-4.927;-1.357;0.656;-3.305;0.199;-5.8;-31.1;4.3;47.48;218;2018-04-16 23:01:50:486
-0.802;-0.16;5.148;0.435;3.411;9.184;-1.237;-3.571;-4.036;1.053;-3.994;1.393;-5.5;-31.1;4.7;47.48;228;2018-04-16 23:01:50:496
3.036;2.733;1.89;1.408;3.598;9.014;2.186;-0.677;-7.994;1.217;-4.76;1.545;-5.4;-31.1;4.9;47.48;239;2018-04-16 23:01:50:507
3.036;2.733;1.89;1.408;3.598;9.014;2.186;-0.677;-7.994;1.217;-4.76;1.545;-5.4;-31.1;4.9;47.48;249;2018-04-16 23:01:50:517
4.469;2.66;-0.002;2.013;3.657;8.874;2.455;-0.997;-8.876;0.867;-5.641;1.357;-5.1;-31.0;5.3;47.48;259;2018-04-16 23:01:50:527
4.469;2.66;-0.002;2.013;3.657;8.874;2.455;-0.997;-8.876;0.254;-6.197;1.112;-5.1;-31.0;5.3;47.48;269;2018-04-16 23:01:50:537
4.488;0.601;2.18;3.185;3.645;8.529;1.303;-3.044;-6.349;0.067;-6.682;1.064;-4.8;-30.8;5.8;47.48;279;2018-04-16 23:01:50:547
3.219;-0.875;4.105;3.185;3.645;8.529;1.303;-3.044;-6.349;0.103;-7.183;1.223;-4.8;-30.8;5.8;47.48;289;2018-04-16 23:01:50:557
1.827;-1.703;3.979;4.458;3.566;7.974;-1.711;-4.743;-3.749;0.176;-7.454;1.574;-4.5;-30.8;6.2;47.48;299;2018-04-16 23:01:50:567
1.827;-1.703;3.979;4.458;3.566;7.974;-1.711;-4.743;-3.749;0.158;-7.456;2.089;-4.4;-30.7;6.4;47.48;309;2018-04-16 23:01:50:577
1.742;-2.714;3.187;5.736;3.368;7.206;-3.994;-6.082;-4.019;0.158;-7.456;2.089;-4.4;-30.7;6.4;42.26;319;2018-04-16 23:01:50:587
4.894;-4.772;2.17;5.736;3.368;7.206;-3.994;-6.082;-4.019;-0.09;-7.207;3.034;-4.1;-30.6;6.9;42.26;328;2018-04-16 23:01:50:596
6.705;-5.286;2.602;6.911;2.913;6.319;-0.55;-8.162;-4.123;-0.37;-7.068;3.544;-3.9;-30.5;7.1;42.26;339;2018-04-16 23:01:50:607
6.705;-5.286;2.602;6.911;2.913;6.319;-0.55;-8.162;-4.123;-0.671;-6.946;3.809;-3.9;-30.5;7.1;42.26;349;2018-04-16 23:01:50:617
4.782;-4.178;4.961;7.921;2.223;5.337;-3.139;-6.401;-0.376;-0.878;-6.833;4.193;-3.7;-30.4;7.4;42.26;359;2018-04-16 23:01:50:627
4.782;-4.178;4.961;7.921;2.223;5.337;-3.139;-6.401;-0.376;-0.878;-6.833;4.193;-3.7;-30.4;7.4;42.26;369;2018-04-16 23:01:50:637
7.242;-5.556;7.851;8.724;1.263;4.297;-1.482;-6.818;3.554;-0.778;-6.391;5.559;-3.5;-30.2;7.7;42.26;379;2018-04-16 23:01:50:647
7.242;-5.556;7.851;8.724;1.263;4.297;-1.482;-6.818;3.554;-0.778;-6.391;5.559;-3.5;-30.2;7.7;42.26;389;2018-04-16 23:01:50:657
12.869;-6.412;10.734;9.259;0.11;3.228;4.975;-6.432;8.643;-0.37;-5.923;6.227;-3.5;-30.2;7.9;42.26;399;2018-04-16 23:01:50:667
12.869;-6.412;10.734;9.259;0.11;3.228;4.975;-6.432;8.643;-0.37;-5.923;6.227;-3.5;-30.2;7.9;42.26;408;2018-04-16 23:01:50:676
12.869;-6.412;10.734;9.259;0.11;3.228;4.975;-6.432;8.643;-0.37;-5.923;6.227;-3.5;-30.2;7.9;42.26;419;2018-04-16 23:01:50:687
15.228;-3.31;12.127;9.479;-0.87;2.36;5.75;-2.44;9.766;1.177;-4.385;5.288;-3.4;-30.0;8.3;42.26;432;2018-04-16 23:01:50:700
15.228;-3.31;12.127;9.479;-0.87;2.36;5.75;-2.44;9.766;1.177;-4.385;5.288;-3.4;-30.0;8.3;42.26;439;2018-04-16 23:01:50:707
13.993;-2.618;7.973;9.488;-1.976;1.495;4.669;-0.84;6.287;2.373;-3.159;4.111;-3.4;-30.0;8.6;42.26;449;2018-04-16 23:01:50:717
15.145;-3.201;7.772;9.441;-2.338;1.257;5.704;-0.863;6.515;2.474;-2.876;3.87;-3.5;-29.6;9.0;42.26;459;2018-04-16 23:01:50:727
15.145;-3.201;7.772;9.441;-2.338;1.257;5.704;-0.863;6.515;2.474;-2.876;3.87;-3.5;-29.6;9.0;42.26;468;2018-04-16 23:01:50:736
17.942;-1.119;6.545;9.3;-2.945;1.0;8.642;1.826;5.544;2.217;-1.702;3.356;-4.6;-28.4;10.4;42.26;478;2018-04-16 23:01:50:746
17.942;-1.119;6.545;9.3;-2.945;1.0;8.642;1.826;5.544;1.548;-0.197;2.527;-4.6;-28.4;10.4;42.26;488;2018-04-16 23:01:50:756
19.315;0.044;4.411;9.149;-3.368;1.062;10.167;3.412;3.349;1.4;0.11;2.25;-6.4;-27.0;12.5;42.26;498;2018-04-16 23:01:50:766
18.597;-0.454;2.187;9.091;-3.496;1.143;10.168;3.457;2.294;1.019;0.66;1.399;-6.4;-27.0;12.5;42.26;508;2018-04-16 23:01:50:776
18.597;-0.454;2.187;9.091;-3.496;1.143;10.168;3.457;2.294;1.019;0.66;1.399;-7.5;-25.0;13.0;42.26;518;2018-04-16 23:01:50:786
16.7;-1.35;1.107;9.008;-3.641;1.331;7.692;2.291;-0.223;0.723;0.712;0.659;-7.5;-25.0;13.0;42.26;529;2018-04-16 23:01:50:797
16.7;-1.35;1.107;9.008;-3.641;1.331;7.692;2.291;-0.223;0.723;0.712;0.659;-7.5;-25.0;13.0;42.26;540;2018-04-16 23:01:50:808
14.06;-2.077;1.468;8.974;-3.677;1.453;4.53;1.501;0.179;0.56;0.442;0.265;-8.4;-24.2;13.7;42.26;549;2018-04-16 23:01:50:817
12.107;-2.422;1.47;8.974;-3.677;1.453;4.53;1.501;0.179;0.787;-0.254;0.198;-9.4;-23.6;14.8;42.26;558;2018-04-16 23:01:50:826
12.107;-2.422;1.47;8.966;-3.691;1.467;2.862;1.238;-0.001;0.787;-0.254;0.198;-9.4;-23.6;14.8;42.26;569;2018-04-16 23:01:50:837
11.418;-2.2;1.287;8.975;-3.71;1.363;2.497;2.08;-0.537;1.051;-0.874;0.263;-9.6;-23.1;15.5;42.26;579;2018-04-16 23:01:50:847
11.801;-1.304;0.739;8.975;-3.71;1.363;2.497;2.08;-0.537;1.263;-1.415;0.34;-9.7;-22.5;15.2;42.26;589;2018-04-16 23:01:50:857
11.801;-1.304;0.739;8.984;-3.725;1.26;3.171;2.644;-0.519;1.263;-1.415;0.34;-9.7;-22.5;15.2;42.26;598;2018-04-16 23:01:50:866
13.586;0.011;1.435;8.984;-3.725;1.26;3.171;2.644;-0.519;1.395;-1.857;0.242;-9.5;-21.7;15.3;42.26;608;2018-04-16 23:01:50:876
13.586;0.011;1.435;9.021;-3.71;1.008;4.789;4.096;0.494;1.534;-2.153;-0.007;-9.5;-21.7;15.3;42.26;619;2018-04-16 23:01:50:887
14.098;1.142;1.13;9.055;-3.666;0.863;5.044;4.808;0.267;1.695;-2.45;-0.362;-8.6;-20.5;18.2;42.26;629;2018-04-16 23:01:50:897
14.098;1.142;1.13;9.055;-3.666;0.863;5.044;4.808;0.267;1.695;-2.45;-0.362;-8.6;-20.5;18.2;42.26;639;2018-04-16 23:01:50:907
13.52;0.824;-0.807;9.157;-3.473;0.501;4.363;4.297;-1.308;1.599;-2.652;-1.123;-7.8;-20.5;20.0;48.15;649;2018-04-16 23:01:50:917
12.087;0.464;-0.846;9.157;-3.473;0.501;4.363;4.297;-1.308;0.743;-1.929;-1.328;-7.5;-20.3;16.9;48.15;658;2018-04-16 23:01:50:926
12.087;0.464;-0.846;9.26;-3.223;0.198;2.705;3.814;-0.714;0.743;-1.929;-1.328;-7.5;-20.3;16.9;48.15;669;2018-04-16 23:01:50:937
12.243;1.136;0.737;9.312;-3.074;0.119;2.931;4.21;0.618;-0.286;-0.674;-1.471;-7.2;-20.2;18.4;48.15;679;2018-04-16 23:01:50:947
12.243;1.136;0.737;9.312;-3.074;0.119;2.931;4.21;0.618;-0.777;0.302;-1.792;-7.2;-20.2;18.4;48.15;688;2018-04-16 23:01:50:956
11.612;1.439;-0.427;9.416;-2.738;0.119;2.196;4.177;-0.547;-0.82;0.378;-1.917;-6.5;-20.3;18.9;48.15;699;2018-04-16 23:01:50:967
11.612;1.439;-0.427;9.416;-2.738;0.119;2.196;4.177;-0.547;-0.82;0.378;-1.917;-6.5;-20.3;18.9;48.15;709;2018-04-16 23:01:50:977
9.761;0.85;-0.784;9.528;-2.32;0.069;0.233;3.17;-0.853;-0.566;-0.217;-2.216;-6.2;-21.5;19.1;48.15;718;2018-04-16 23:01:50:986
8.781;0.484;-0.09;9.528;-2.32;0.069;0.233;3.17;-0.853;0.04;-1.271;-2.149;-7.0;-21.1;17.9;48.15;729;2018-04-16 23:01:50:997
8.866;0.351;0.371;9.62;-1.898;-0.141;-0.973;2.286;0.184;0.276;-1.603;-1.996;-7.0;-21.1;17.9;48.15;741;2018-04-16 23:01:51:009
8.866;0.351;0.371;9.62;-1.898;-0.141;-0.973;2.286;0.184;0.276;-1.603;-1.996;-6.1;-21.0;19.3;48.15;749;2018-04-16 23:01:51:017
8.899;0.383;0.043;9.676;-1.529;-0.453;-0.614;2.01;0.719;0.445;-1.73;-1.831;-6.1;-21.0;19.3;48.15;759;2018-04-16 23:01:51:027
8.899;0.383;0.043;9.676;-1.529;-0.453;-0.614;2.01;0.719;0.398;-1.317;-1.539;-5.4;-21.2;19.3;48.15;768;2018-04-16 23:01:51:036
8.393;0.596;-0.721;9.704;-1.235;-0.693;-1.311;1.831;-0.028;0.304;-1.13;-1.47;-5.4;-21.2;19.3;48.15;779;2018-04-16 23:01:51:047
8.393;0.596;-0.721;9.704;-1.235;-0.693;-1.311;1.831;-0.028;-0.089;-0.497;-1.263;-4.4;-21.0;18.9;48.15;789;2018-04-16 23:01:51:057
8.185;0.696;-0.383;9.725;-0.987;-0.788;-1.54;1.682;0.404;-0.349;-0.035;-1.141;-4.4;-21.0;18.9;48.15;798;2018-04-16 23:01:51:066
7.863;0.174;-0.279;9.725;-0.987;-0.788;-1.54;1.682;0.404;-0.56;0.307;-1.032;-3.5;-20.1;19.3;48.15;809;2018-04-16 23:01:51:077
7.863;0.174;-0.279;9.748;-0.778;-0.741;-2.023;0.82;0.647;-0.56;0.307;-1.032;-3.5;-20.1;19.3;48.15;818;2018-04-16 23:01:51:086
6.446;-1.013;0.917;9.764;-0.616;-0.674;-4.722;-1.504;2.833;-0.606;0.456;-0.913;-2.6;-20.3;19.4;48.15;829;2018-04-16 23:01:51:097
4.82;-2.191;2.518;9.764;-0.616;-0.674;-4.722;-1.504;2.833;-0.242;0.184;-0.525;-2.6;-20.3;19.4;48.15;839;2018-04-16 23:01:51:107
-7.924;-13.536;9.499;9.764;-0.616;-0.674;-4.722;-1.504;2.833;0.159;-0.204;-0.143;-2.8;-20.3;18.9;48.15;849;2018-04-16 23:01:51:117
-7.924;-13.536;9.499;9.748;-0.664;-0.836;-34.401;-16.836;16.31;0.159;-0.204;-0.143;-2.8;-20.3;18.9;48.15;859;2018-04-16 23:01:51:127
11.613;-2.774;-7.822;9.748;-0.664;-0.836;-34.401;-16.836;16.31;4.072;-4.426;3.549;-3.1;-20.2;18.7;48.15;869;2018-04-16 23:01:51:137
23.561;0.067;-3.774;9.59;-1.308;-1.577;13.794;-1.272;-7.524;2.707;-3.927;2.381;-3.1;-20.2;18.7;48.15;878;2018-04-16 23:01:51:146
23.561;0.067;-3.774;9.59;-1.308;-1.577;13.794;-1.272;-7.524;0.612;-0.58;-0.166;-1.7;-19.9;18.6;48.15;889;2018-04-16 23:01:51:157
12.676;2.218;-0.402;9.576;-1.316;-1.655;3.1;3.534;1.253;-0.292;1.767;-0.353;-1.7;-19.9;18.6;48.15;899;2018-04-16 23:01:51:167
12.676;2.218;-0.402;9.576;-1.316;-1.655;3.1;3.534;1.253;-0.292;1.767;-0.353;-1.7;-19.9;18.6;48.15;909;2018-04-16 23:01:51:177
12.676;2.218;-0.402;9.576;-1.316;-1.655;3.1;3.534;1.253;-0.292;1.767;-0.353;-1.7;-19.9;18.6;48.15;919;2018-04-16 23:01:51:187
12.676;2.218;-0.402;9.576;-1.316;-1.655;3.1;3.534;1.253;-0.292;1.767;-0.353;-1.7;-19.9;18.6;48.15;929;2018-04-16 23:01:51:197
12.676;2.218;-0.402;9.576;-1.316;-1.655;3.1;3.534;1.253;-0.292;1.767;-0.353;-1.7;-19.9;18.6;48.15;938;2018-04-16 23:01:51:206
12.676;2.218;-0.402;9.576;-1.316;-1.655;3.1;3.534;1.253;-0.292;1.767;-0.353;-1.7;-19.9;18.6;48.15;949;2018-04-16 23:01:51:217
12.676;2.218;-0.402;9.576;-1.316;-1.655;3.1;3.534;1.253;-0.292;1.767;-0.353;-1.7;-19.9;18.6;48.15;959;2018-04-16 23:01:51:227
12.676;2.218;-0.402;9.576;-1.316;-1.655;3.1;3.534;1.253;-0.292;1.767;-0.353;-1.7;-19.9;18.6;48.15;969;2018-04-16 23:01:51:237
12.676;2.218;-0.402;9.576;-1.316;-1.655;3.1;3.534;1.253;-0.292;1.767;-0.353;-1.7;-19.9;18.6;48.15;979;2018-04-16 23:01:51:247
12.676;2.218;-0.402;9.576;-1.316;-1.655;3.1;3.534;1.253;-0.292;1.767;-0.353;-1.7;-19.9;18.6;48.15;989;2018-04-16 23:01:51:257
12.676;2.218;-0.402;9.576;-1.316;-1.655;3.1;3.534;1.253;-0.292;1.767;-0.353;-1.7;-19.9;18.6;48.15;999;2018-04-16 23:01:51:267
12.676;2.218;-0.402;9.576;-1.316;-1.655;3.1;3.534;1.253;-0.292;1.767;-0.353;-1.7;-19.9;18.6;48.15;1009;2018-04-16 23:01:51:277
12.676;2.218;-0.402;9.576;-1.316;-1.655;3.1;3.534;1.253;-0.292;1.767;-0.353;-1.7;-19.9;18.6;48.15;1019;2018-04-16 23:01:51:287
12.676;2.218;-0.402;9.576;-1.316;-1.655;3.1;3.534;1.253;-0.292;1.767;-0.353;-1.7;-19.9;18.6;48.15;1029;2018-04-16 23:01:51:297
12.676;2.218;-0.402;9.576;-1.316;-1.655;3.1;3.534;1.253;-0.292;1.767;-0.353;-1.7;-19.9;18.6;48.15;1039;2018-04-16 23:01:51:307
12.676;2.218;-0.402;9.576;-1.316;-1.655;3.1;3.534;1.253;-0.292;1.767;-0.353;-1.7;-19.9;18.6;48.15;1049;2018-04-16 23:01:51:317
12.676;2.218;-0.402;9.576;-1.316;-1.655;3.1;3.534;1.253;-0.292;1.767;-0.353;-1.7;-19.9;18.6;48.15;1059;2018-04-16 23:01:51:327
12.676;2.218;-0.402;9.576;-1.316;-1.655;3.1;3.534;1.253;-0.292;1.767;-0.353;-1.7;-19.9;18.6;48.15;1069;2018-04-16 23:01:51:337
12.676;2.218;-0.402;9.576;-1.316;-1.655;3.1;3.534;1.253;-0.292;1.767;-0.353;-1.7;-19.9;18.6;48.15;1078;2018-04-16 23:01:51:346
12.676;2.218;-0.402;9.576;-1.316;-1.655;3.1;3.534;1.253;-0.292;1.767;-0.353;-1.7;-19.9;18.6;48.15;1089;2018-04-16 23:01:51:357
12.676;2.218;-0.402;9.576;-1.316;-1.655;3.1;3.534;1.253;-0.292;1.767;-0.353;-1.7;-19.9;18.6;48.15;1099;2018-04-16 23:01:51:367
12.676;2.218;-0.402;9.576;-1.316;-1.655;3.1;3.534;1.253;-0.292;1.767;-0.353;-1.7;-19.9;18.6;48.15;1109;2018-04-16 23:01:51:377
11.593;1.296;-2.546;9.635;-1.243;-1.337;-0.068;0.218;-1.569;-0.495;1.819;-0.279;-1.6;-19.4;20.3;48.15;1120;2018-04-16 23:01:51:388
11.593;1.296;-2.546;9.635;-1.243;-1.337;-0.068;0.218;-1.569;-0.162;0.352;1.481;-1.6;-19.4;20.3;48.15;1128;2018-04-16 23:01:51:396
1.184;-0.948;0.202;9.558;-1.712;-1.373;-8.374;0.763;1.576;-0.27;0.31;1.803;0.5;-17.7;23.1;48.15;1139;2018-04-16 23:01:51:407
1.184;-0.948;0.202;9.558;-1.712;-1.373;-8.374;0.763;1.576;-0.27;0.31;1.803;0.5;-17.7;23.1;48.15;1149;2018-04-16 23:01:51:417
3.713;-1.201;-1.681;9.468;-2.196;-1.302;-5.755;0.995;-0.379;-0.448;0.529;2.777;0.1;-17.6;23.2;48.15;1159;2018-04-16 23:01:51:427
3.713;-1.201;-1.681;9.468;-2.196;-1.302;-5.755;0.995;-0.379;-0.738;0.208;3.065;0.1;-17.6;23.2;48.15;1169;2018-04-16 23:01:51:437
4.155;-3.814;-1.208;9.32;-2.755;-1.312;-5.165;-1.059;0.104;-0.738;0.208;3.065;0.2;-17.6;23.5;48.15;1179;2018-04-16 23:01:51:447
4.155;-3.814;-1.208;9.32;-2.755;-1.312;-5.165;-1.059;0.104;-0.885;-0.771;3.403;0.2;-17.6;23.5;48.15;1188;2018-04-16 23:01:51:456
3.112;-7.001;3.291;9.058;-3.439;-1.517;-5.945;-3.561;4.808;-0.831;-0.86;4.143;0.2;-17.5;24.1;51.49;1199;2018-04-16 23:01:51:467
5.296;-7.068;0.42;9.058;-3.439;-1.517;-5.945;-3.561;4.808;-0.987;-0.409;6.211;0.2;-17.5;24.1;51.49;1209;2018-04-16 23:01:51:477
8.405;-6.821;-1.275;8.596;-4.415;-1.67;-2.632;-2.726;2.137;-1.073;-0.461;6.713;0.0;-17.3;24.4;51.49;1219;2018-04-16 23:01:51:487
8.405;-6.821;-1.275;8.596;-4.415;-1.67;-2.632;-2.726;2.137;-1.073;-0.461;6.713;0.0;-17.3;24.4;51.49;1229;2018-04-16 23:01:51:497
10.25;-5.911;-2.626;7.8;-5.607;-1.973;2.45;-0.304;-0.654;-0.87;-1.731;7.737;-0.2;-17.1;24.5;51.49;1238;2018-04-16 23:01:51:506
11.012;-6.377;5.544;7.8;-5.607;-1.973;2.45;-0.304;-0.654;-0.305;-3.046;8.024;-0.2;-17.1;24.5;51.49;1249;2018-04-16 23:01:51:517
5.754;-8.388;0.469;6.7;-6.756;-2.376;3.401;-0.336;8.6;1.183;-1.318;7.512;-0.4;-16.9;24.8;51.49;1259;2018-04-16 23:01:51:527
5.754;-8.388;0.469;6.7;-6.756;-2.376;3.401;-0.336;8.6;2.737;0.298;7.104;-0.4;-16.9;24.8;51.49;1269;2018-04-16 23:01:51:537
2.085;-8.866;-3.377;5.637;-7.776;-1.98;-3.552;-1.09;-1.397;3.047;0.215;7.252;-0.8;-16.6;25.1;51.49;1279;2018-04-16 23:01:51:547
1.508;-4.79;1.341;5.637;-7.776;-1.98;-3.552;-1.09;-1.397;3.749;-1.134;7.931;-1.0;-16.4;25.1;51.49;1291;2018-04-16 23:01:51:559
1.508;-4.79;1.341;4.294;-8.691;-1.483;-2.741;4.33;2.599;3.749;-1.134;7.931;-1.0;-16.4;25.1;51.49;1299;2018-04-16 23:01:51:567
1.481;-3.803;-0.983;4.294;-8.691;-1.483;-2.741;4.33;2.599;4.012;-0.816;7.806;-3.4;-13.7;25.8;51.49;1312;2018-04-16 23:01:51:580
1.586;-3.047;-2.964;2.891;-9.333;-0.841;-1.305;6.286;-2.123;3.851;-0.823;7.692;-3.4;-13.7;25.8;51.49;1319;2018-04-16 23:01:51:587
1.586;-3.047;-2.964;2.891;-9.333;-0.841;-1.305;6.286;-2.123;3.851;-0.823;7.692;-5.6;-9.5;26.8;51.49;1329;2018-04-16 23:01:51:597
2.155;-2.058;-2.079;1.502;-9.685;-0.338;0.653;7.627;-1.742;2.841;-1.924;7.018;-5.6;-9.5;26.8;51.49;1338;2018-04-16 23:01:51:606
1.571;-1.663;-2.78;1.502;-9.685;-0.338;0.653;7.627;-1.742;2.369;-2.103;6.645;-6.3;-6.5;26.3;51.49;1349;2018-04-16 23:01:51:617
1.282;-1.268;-2.286;0.243;-9.804;0.008;1.198;8.288;-2.907;1.654;-2.538;6.221;-6.3;-6.5;26.3;51.49;1359;2018-04-16 23:01:51:627
1.282;-1.268;-2.286;0.243;-9.804;0.008;1.198;8.288;-2.907;0.688;-3.385;5.528;-6.6;-4.6;27.4;51.49;1369;2018-04-16 23:01:51:637
1.141;-1.344;-1.61;-0.83;-9.77;0.16;2.012;8.513;-2.169;0.166;-3.877;5.14;-6.6;-4.6;27.4;51.49;1379;2018-04-16 23:01:51:647
1.141;-1.344;-1.61;-0.83;-9.77;0.16;2.012;8.513;-2.169;-0.299;-4.22;4.842;-4.6;-2.1;27.5;51.49;1389;2018-04-16 23:01:51:657
0.816;-3.522;-0.995;-1.765;-9.644;0.213;2.582;6.122;-1.208;-0.299;-4.22;4.842;-4.6;-2.1;27.5;51.49;1398;2018-04-16 23:01:51:666
-24.12;-39.185;13.568;-1.765;-9.644;0.213;2.582;6.122;-1.208;-0.794;-3.941;5.223;-2.4;-0.7;29.5;51.49;1408;2018-04-16 23:01:51:676
5.515;-39.185;-1.099;-3.147;-9.288;0.067;-14.271;-29.897;12.1;-1.724;-0.998;9.2;-2.4;-0.7;29.5;51.49;1419;2018-04-16 23:01:51:687
5.515;-39.185;-1.099;-3.147;-9.288;0.067;-14.271;-29.897;12.1;-4.761;-0.392;6.988;-0.4;-0.5;29.7;51.49;1429;2018-04-16 23:01:51:697
-5.538;-29.562;11.839;-4.242;-8.81;-0.741;9.676;-21.175;4.815;-6.36;-1.958;-0.852;-0.4;-0.5;29.7;51.49;1438;2018-04-16 23:01:51:706
-5.538;-29.562;11.839;-4.242;-8.81;-0.741;9.676;-21.175;4.815;-5.468;-0.795;-3.089;0.1;-5.0;27.6;51.49;1448;2018-04-16 23:01:51:716
-8.71;-16.952;2.13;-3.758;-8.908;-1.641;-4.952;-8.044;3.771;-4.186;-0.057;-2.553;0.1;-5.0;27.6;51.49;1458;2018-04-16 23:01:51:726
-2.919;-3.332;-1.794;-3.758;-8.908;-1.641;-4.952;-8.044;3.771;-0.712;-4.765;-1.411;0.0;-5.4;26.8;51.49;1468;2018-04-16 23:01:51:736
-2.919;-3.332;-1.794;-3.648;-8.987;-1.449;1.323;6.542;1.985;1.543;-7.553;-0.772;0.0;-5.4;26.8;51.49;1478;2018-04-16 23:01:51:746
-2.06;-2.273;3.346;-3.648;-8.987;-1.449;1.323;6.542;1.985;2.446;-7.811;-0.514;2.9;-5.1;28.8;51.49;1488;2018-04-16 23:01:51:756
-1.887;-1.842;3.56;-3.7;-9.07;-0.456;1.808;7.126;4.143;2.66;-6.971;-0.423;2.9;-5.1;28.8;51.49;1498;2018-04-16 23:01:51:766
-1.887;-1.842;3.56;-3.7;-9.07;-0.456;1.808;7.126;4.143;2.676;-5.922;-0.431;6.1;-4.3;26.1;51.17;1509;2018-04-16 23:01:51:777
-3.06;-3.879;3.926;-3.62;-9.102;0.455;0.561;5.224;3.472;2.507;-4.589;-0.503;6.1;-4.3;26.1;51.17;1519;2018-04-16 23:01:51:787
-5.708;-9.732;0.215;-3.62;-9.102;0.455;0.561;5.224;3.472;2.122;-2.821;-0.47;8.7;-3.0;25.6;51.17;1528;2018-04-16 23:01:51:796
-5.708;-9.732;0.215;-3.5;-9.102;1.037;-2.339;-1.483;-2.781;1.616;-0.61;-0.367;8.7;-3.0;25.6;51.17;1539;2018-04-16 23:01:51:807
-5.493;-10.94;-3.876;-3.5;-9.102;1.037;-2.339;-1.483;-2.781;0.867;1.662;-0.318;10.2;-2.3;28.1;51.17;1549;2018-04-16 23:01:51:817
-4.445;-10.388;-4.193;-3.48;-9.106;1.071;-1.38;-1.478;-5.712;-0.055;3.731;-0.208;10.2;-2.3;28.1;51.17;1559;2018-04-16 23:01:51:827
-4.445;-10.388;-4.193;-3.48;-9.106;1.071;-1.38;-1.478;-5.712;-0.327;4.12;-0.087;9.2;-1.7;25.9;51.17;1569;2018-04-16 23:01:51:837
-3.533;-10.093;-2.047;-3.527;-9.119;0.757;-0.006;-0.974;-2.805;-0.439;4.127;0.005;9.2;-1.7;25.9;51.17;1579;2018-04-16 23:01:51:847
-3.005;-9.793;-0.395;-3.527;-9.119;0.757;-0.006;-0.974;-2.805;-0.512;4.033;0.046;6.7;-1.3;27.5;51.17;1589;2018-04-16 23:01:51:857
-3.005;-9.793;-0.395;-3.579;-9.123;0.373;0.561;-0.68;-0.547;-0.593;3.91;0.051;6.7;-1.3;27.5;51.17;1599;2018-04-16 23:01:51:867
-2.946;-9.592;0.045;-3.579;-9.123;0.373;0.561;-0.68;-0.547;-0.593;3.91;0.051;5.0;-2.8;28.0;51.17;1609;2018-04-16 23:01:51:877
-2.893;-9.292;0.335;-3.598;-9.123;-0.016;0.742;-0.147;0.312;-0.689;3.673;0.056;5.0;-2.8;28.0;51.17;1619;2018-04-16 23:01:51:887
-2.893;-9.292;0.335;-3.598;-9.123;-0.016;0.742;-0.147;0.312;-0.63;3.2;0.108;3.6;-2.3;28.8;51.17;1629;2018-04-16 23:01:51:897
-2.703;-9.287;0.51;-3.598;-9.116;-0.355;0.895;-0.171;0.865;-0.506;2.716;0.139;3.6;-2.3;28.8;51.17;1639;2018-04-16 23:01:51:907
-2.512;-9.442;0.585;-3.598;-9.116;-0.355;0.895;-0.171;0.865;-0.347;2.154;0.134;2.4;-2.8;28.0;51.17;1648;2018-04-16 23:01:51:916
0.08;-9.714;7.641;-3.591;-9.108;-0.57;1.069;-0.48;1.294;-0.199;1.651;0.164;2.4;-2.8;28.0;51.17;1659;2018-04-16 23:01:51:927
0.08;-9.714;7.641;-3.591;-9.108;-0.57;1.069;-0.48;1.294;-0.199;1.651;0.164;2.5;-1.8;28.9;51.17;1668;2018-04-16 23:01:51:936
-0.348;-10.291;0.209;-3.587;-9.089;-0.83;4.08;-0.638;3.691;-0.516;3.531;0.332;2.5;-1.8;28.9;51.17;1678;2018-04-16 23:01:51:946
-0.348;-10.291;0.209;-3.587;-9.089;-0.83;4.08;-0.638;3.691;0.423;2.194;-0.013;1.4;-2.8;29.0;51.17;1688;2018-04-16 23:01:51:956
0.152;-9.416;4.702;-3.536;-9.1;-0.925;3.688;-0.316;5.627;0.962;2.103;-0.119;1.4;-2.8;29.0;51.17;1698;2018-04-16 23:01:51:966
-0.958;-9.792;1.453;-3.536;-9.1;-0.925;3.688;-0.316;5.627;0.962;2.103;-0.119;1.1;-3.3;28.5;51.17;1708;2018-04-16 23:01:51:976
-0.958;-9.792;1.453;-3.44;-9.149;-0.798;2.377;-0.654;2.093;1.549;1.592;-0.264;1.1;-3.3;28.5;51.17;1718;2018-04-16 23:01:51:986
-1.872;-10.197;-0.943;-3.44;-9.149;-0.798;2.377;-0.654;2.093;1.621;0.864;-0.302;0.1;-2.1;27.7;51.17;1728;2018-04-16 23:01:51:996
-2.857;-9.96;-2.313;-3.372;-9.192;-0.559;0.766;-0.937;-1.527;1.483;0.009;-0.281;0.1;-2.1;27.7;51.17;1738;2018-04-16 23:01:52:006
-2.857;-9.96;-2.313;-3.372;-9.192;-0.559;0.766;-0.937;-1.527;1.196;-0.776;-0.217;-0.6;-1.5;27.7;51.17;1748;2018-04-16 23:01:52:016
-3.369;-9.285;-2.381;-3.343;-9.214;-0.3;-0.026;-0.07;-2.081;0.819;-1.394;-0.131;-0.6;-1.5;27.7;51.17;1758;2018-04-16 23:01:52:026
-3.803;-8.871;-1.775;-3.343;-9.214;-0.3;-0.026;-0.07;-2.081;0.391;-1.829;-0.028;-0.5;-0.3;28.6;51.17;1768;2018-04-16 23:01:52:036
-3.944;-8.812;-1.487;-3.356;-9.214;-0.118;-0.492;0.397;-1.542;-0.042;-2.085;0.083;-0.5;-0.3;28.6;51.17;1779;2018-04-16 23:01:52:047
-3.944;-8.812;-1.487;-3.356;-9.214;-0.118;-0.492;0.397;-1.542;-0.445;-2.268;0.183;0.3;-0.3;29.1;51.17;1789;2018-04-16 23:01:52:057
-3.871;-8.867;-1.341;-3.404;-9.197;-0.054;-0.467;0.33;-1.287;-0.772;-2.462;0.277;0.3;-0.3;29.1;51.17;1799;2018-04-16 23:01:52:067
-3.534;-9.228;-0.643;-3.404;-9.197;-0.054;-0.467;0.33;-1.287;-0.993;-2.676;0.359;0.4;-1.6;29.4;66.01;1809;2018-04-16 23:01:52:077
-2.831;-9.621;0.233;-3.475;-9.17;-0.055;0.154;-0.17;-0.301;-1.118;-2.831;0.419;0.4;-1.6;29.4;66.01;1819;2018-04-16 23:01:52:087
-2.831;-9.621;0.233;-3.475;-9.17;-0.055;0.154;-0.17;-0.301;-1.133;-2.91;0.436;2.0;-0.9;29.6;66.01;1829;2018-04-16 23:01:52:097
-2.199;-9.683;0.84;-3.55;-9.141;-0.057;1.351;-0.542;0.897;-0.943;-2.877;0.406;2.0;-0.9;29.6;66.01;1838;2018-04-16 23:01:52:106
-1.584;-9.549;1.994;-3.55;-9.141;-0.057;1.351;-0.542;0.897;-0.677;-2.684;0.326;1.9;-1.6;28.8;66.01;1848;2018-04-16 23:01:52:116
-1.584;-9.549;1.994;-3.6;-9.122;-0.002;2.051;-0.394;2.18;-0.37;-2.319;0.237;1.9;-1.6;28.8;66.01;1858;2018-04-16 23:01:52:126
-1.58;-9.427;2.386;-3.6;-9.122;-0.002;2.051;-0.394;2.18;-0.089;-1.825;0.15;2.4;-1.5;28.5;66.01;1868;2018-04-16 23:01:52:136
-1.797;-9.336;2.142;-3.612;-9.117;0.111;1.815;-0.22;2.031;0.112;-1.269;0.067;2.4;-1.5;28.5;66.01;1878;2018-04-16 23:01:52:146
-2.236;-9.28;1.5;-3.612;-9.117;0.111;1.815;-0.22;2.031;0.202;-0.705;-0.009;1.7;-1.8;28.8;66.01;1888;2018-04-16 23:01:52:156
-2.594;-9.425;0.917;-3.595;-9.122;0.196;1.217;-0.18;1.048;0.198;-0.187;-0.044;1.7;-1.8;28.8;66.01;1899;2018-04-16 23:01:52:167
-2.594;-9.425;0.917;-3.595;-9.122;0.196;1.217;-0.18;1.048;0.198;-0.187;-0.044;1.6;-1.7;29.0;66.01;1908;2018-04-16 23:01:52:176
-2.702;-9.538;0.509;-3.579;-9.128;0.198;0.936;-0.365;0.43;0.088;0.456;-0.05;1.6;-1.7;29.0;66.01;1918;2018-04-16 23:01:52:186
-2.702;-9.538;0.509;-3.579;-9.128;0.198;0.936;-0.365;0.43;-0.055;0.894;-0.067;1.9;-1.8;28.7;66.01;1929;2018-04-16 23:01:52:197
-2.922;-9.554;0.317;-3.565;-9.135;0.123;0.643;-0.419;0.194;-0.097;1.045;-0.061;1.9;-1.8;28.7;66.01;1939;2018-04-16 23:01:52:207
-2.999;-9.392;0.23;-3.565;-9.135;0.123;0.643;-0.419;0.194;-0.097;1.045;-0.061;2.2;-1.8;28.5;66.01;1949;2018-04-16 23:01:52:217
-3.041;-9.275;0.345;-3.553;-9.14;0.026;0.543;-0.22;0.239;-0.094;1.097;-0.043;2.2;-1.8;28.5;66.01;1959;2018-04-16 23:01:52:227
-3.041;-9.275;0.345;-3.542;-9.144;-0.065;0.509;-0.091;0.454;-0.079;1.076;-0.033;2.5;-1.8;29.0;66.01;1969;2018-04-16 23:01:52:237
-3.008;-9.22;0.426;-3.542;-9.144;-0.065;0.509;-0.091;0.454;-0.092;1.068;-0.017;2.5;-1.8;29.0;66.01;1979;2018-04-16 23:01:52:247
-3.008;-9.22;0.426;-3.542;-9.144;-0.065;0.509;-0.091;0.454;-0.092;1.068;-0.017;2.7;-1.7;28.6;66.01;1989;2018-04-16 23:01:52:257
-2.945;-9.254;0.426;-3.532;-9.147;-0.158;0.587;-0.106;0.584;-0.106;1.049;-0.004;2.7;-1.7;28.6;66.01;1999;2018-04-16 23:01:52:267
-2.834;-9.307;0.382;-3.532;-9.147;-0.158;0.587;-0.106;0.584;-0.122;0.986;0.016;2.4;-1.9;28.6;66.01;2008;2018-04-16 23:01:52:276
-2.834;-9.307;0.382;-3.524;-9.148;-0.248;0.754;-0.183;0.598;-0.136;0.92;0.026;2.4;-1.9;28.6;66.01;2018;2018-04-16 23:01:52:286
-2.667;-9.36;0.375;-3.524;-9.148;-0.248;0.754;-0.183;0.598;-0.142;0.838;0.039;2.5;-1.7;28.5;66.01;2028;2018-04-16 23:01:52:296
-2.527;-9.421;0.332;-3.517;-9.148;-0.332;0.95;-0.256;0.67;-0.14;0.742;0.045;2.5;-1.7;28.5;66.01;2038;2018-04-16 23:01:52:306
-2.527;-9.421;0.332;-3.517;-9.148;-0.332;0.95;-0.256;0.67;-0.128;0.566;0.053;2.8;-1.7;28.6;66.01;2048;2018-04-16 23:01:52:316
-2.423;-9.473;0.314;-3.511;-9.148;-0.4;1.088;-0.325;0.714;-0.128;0.566;0.053;2.8;-1.7;28.6;66.01;2058;2018-04-16 23:01:52:326
-2.331;-9.493;0.333;-3.511;-9.148;-0.4;1.088;-0.325;0.714;-0.112;0.439;0.053;3.3;-1.8;28.9;66.01;2068;2018-04-16 23:01:52:336
-2.297;-9.475;0.364;-3.502;-9.149;-0.445;1.18;-0.337;0.797;-0.092;0.312;0.054;3.3;-1.8;28.9;66.01;2078;2018-04-16 23:01:52:346
-2.297;-9.475;0.364;-3.502;-9.149;-0.445;1.18;-0.337;0.797;-0.07;0.144;0.049;3.6;-2.0;29.0;66.01;2088;2018-04-16 23:01:52:356
-2.258;-9.497;0.401;-3.368;-9.199;-0.453;1.106;-0.288;0.851;-0.067;0.045;0.045;3.6;-2.0;29.0;66.01;2098;2018-04-16 23:01:52:366
-2.258;-9.497;0.401;-3.368;-9.199;-0.453;1.106;-0.288;0.851;-0.066;-0.039;0.042;3.8;-2.0;29.1;46.28;2108;2018-04-16 23:01:52:376
-2.242;-9.495;0.462;-3.156;-9.276;-0.403;0.914;-0.219;0.865;-0.057;-0.143;0.034;3.8;-2.0;29.1;46.28;2118;2018-04-16 23:01:52:386
-2.204;-9.489;0.527;-3.156;-9.276;-0.403;0.914;-0.219;0.865;-0.043;-0.199;0.033;3.9;-2.1;29.1;46.28;2128;2018-04-16 23:01:52:396
-2.204;-9.489;0.557;-2.961;-9.344;-0.307;0.769;-0.131;0.841;-0.024;-0.25;0.024;3.9;-2.1;29.1;46.28;2138;2018-04-16 23:01:52:406
-2.195;-9.467;0.557;-2.961;-9.344;-0.307;0.769;-0.131;0.841;0.005;-0.293;0.015;4.0;-2.2;29.3;46.28;2148;2018-04-16 23:01:52:416
-2.257;-9.425;0.609;-2.825;-9.389;-0.199;0.592;-0.06;0.787;0.039;-0.329;0.001;4.0;-2.2;29.3;46.28;2159;2018-04-16 23:01:52:427
-2.257;-9.425;0.609;-2.825;-9.389;-0.199;0.592;-0.06;0.787;0.039;-0.329;0.001;3.9;-2.2;29.4;46.28;2169;2018-04-16 23:01:52:437
-2.377;-9.388;0.698;-2.75;-9.413;-0.084;0.373;0.025;0.782;0.108;-0.365;-0.016;3.9;-2.2;29.4;46.28;2178;2018-04-16 23:01:52:446
-2.533;-9.329;0.657;-2.75;-9.413;-0.084;0.373;0.025;0.782;0.162;-0.378;-0.027;3.8;-2.2;29.7;46.28;2189;2018-04-16 23:01:52:457
-2.652;-9.311;0.499;-2.718;-9.422;0.018;0.161;0.108;0.618;0.216;-0.389;-0.04;3.8;-2.2;29.7;46.28;2199;2018-04-16 23:01:52:467
-2.652;-9.311;0.499;-2.718;-9.422;0.018;0.161;0.108;0.618;0.268;-0.419;-0.043;3.7;-2.1;29.7;46.28;2209;2018-04-16 23:01:52:477
-2.82;-9.38;0.238;-2.707;-9.425;0.099;-0.061;0.076;0.243;0.276;-0.453;-0.04;3.7;-2.1;29.7;46.28;2218;2018-04-16 23:01:52:486
-2.82;-9.38;0.238;-2.707;-9.425;0.099;-0.061;0.076;0.243;0.259;-0.495;-0.029;3.6;-2.0;29.9;46.28;2228;2018-04-16 23:01:52:496
-2.952;-9.412;0.038;-2.702;-9.425;0.174;-0.25;0.014;-0.136;0.23;-0.551;-0.021;3.6;-2.0;29.9;46.28;2238;2018-04-16 23:01:52:506
-3.041;-9.373;-0.097;-2.702;-9.425;0.174;-0.25;0.014;-0.136;0.189;-0.61;-0.004;3.5;-2.0;30.1;46.28;2248;2018-04-16 23:01:52:516
-3.014;-9.324;-0.11;-2.703;-9.424;0.24;-0.356;0.066;-0.341;0.114;-0.682;0.032;3.5;-2.0;30.1;46.28;2258;2018-04-16 23:01:52:526
-3.014;-9.324;-0.11;-2.703;-9.424;0.292;-0.356;0.066;-0.354;0.065;-0.705;0.048;3.5;-1.9;30.1;46.28;2269;2018-04-16 23:01:52:537
-2.887;-9.336;0.004;-2.71;-9.42;0.292;-0.224;0.101;-0.354;0.065;-0.705;0.048;3.5;-1.9;30.1;46.28;2278;2018-04-16 23:01:52:546
-2.887;-9.336;0.004;-2.71;-9.42;0.292;-0.224;0.101;-0.354;-0.009;-0.676;0.07;3.6;-1.8;30.4;46.28;2288;2018-04-16 23:01:52:556
-2.692;-9.392;0.172;-2.719;-9.416;0.324;0.027;0.024;-0.151;-0.054;-0.604;0.075;3.6;-1.8;30.4;46.28;2298;2018-04-16 23:01:52:566
-2.543;-9.459;0.389;-2.719;-9.416;0.324;0.027;0.024;-0.151;-0.054;-0.604;0.075;3.7;-1.8;30.6;46.28;2308;2018-04-16 23:01:52:576
-2.543;-9.459;0.389;-2.728;-9.414;0.334;0.232;-0.041;0.115;-0.097;-0.423;0.067;3.7;-1.8;30.6;46.28;2318;2018-04-16 23:01:52:586
-2.444;-9.468;0.539;-2.728;-9.414;0.334;0.232;-0.041;0.115;-0.111;-0.194;0.043;3.9;-1.7;30.7;46.28;2328;2018-04-16 23:01:52:596
-2.401;-9.474;0.555;-2.731;-9.413;0.325;0.33;-0.061;0.23;-0.099;-0.043;0.024;3.9;-1.7;30.7;46.28;2338;2018-04-16 23:01:52:606
-2.442;-9.415;0.488;-2.731;-9.413;0.325;0.33;-0.061;0.23;-0.073;0.088;0.006;4.1;-1.6;30.9;46.28;2349;2018-04-16 23:01:52:617
-2.442;-9.415;0.488;-2.717;-9.417;0.313;0.251;-0.001;0.181;-0.061;0.144;-0.005;4.2;-1.6;30.8;46.28;2359;2018-04-16 23:01:52:627
-2.575;-9.413;0.474;-2.717;-9.417;0.313;0.251;-0.001;0.181;-0.024;0.292;-0.029;4.2;-1.6;30.8;46.28;2369;2018-04-16 23:01:52:637
-2.671;-9.408;0.425;-2.703;-9.422;0.302;0.073;0.017;0.138;-0.026;0.382;-0.035;4.4;-1.6;30.6;46.28;2378;2018-04-16 23:01:52:646
-2.671;-9.408;0.425;-2.703;-9.422;0.302;0.073;0.017;0.138;-0.037;0.463;-0.038;4.4;-1.6;30.6;46.28;2389;2018-04-16 23:01:52:657
-2.691;-9.396;0.364;-2.697;-9.424;0.273;0.006;0.028;0.09;-0.075;0.551;-0.034;4.5;-1.5;30.6;46.28;2399;2018-04-16 23:01:52:667
-2.671;-9.413;0.317;-2.697;-9.424;0.273;0.006;0.028;0.09;-0.075;0.551;-0.034;4.6;-1.5;30.7;42.92;2409;2018-04-16 23:01:52:677
-2.658;-9.388;0.329;-2.694;-9.427;0.228;0.018;0.022;0.095;-0.098;0.574;-0.029;4.6;-1.5;30.7;42.92;2419;2018-04-16 23:01:52:687
-2.658;-9.388;0.329;-2.694;-9.427;0.228;0.018;0.022;0.095;-0.108;0.535;-0.022;4.8;-1.4;30.7;42.92;2429;2018-04-16 23:01:52:697
-2.654;-9.358;0.364;-2.691;-9.428;0.179;0.037;0.071;0.184;-0.081;0.464;-0.015;4.8;-1.4;30.7;42.92;2439;2018-04-16 23:01:52:707
-2.654;-9.358;0.364;-2.69;-9.429;0.145;0.043;0.093;0.249;-0.062;0.401;-0.012;4.9;-1.3;30.8;42.92;2449;2018-04-16 23:01:52:717
-2.647;-9.336;0.394;-2.69;-9.429;0.145;0.043;0.093;0.249;-0.062;0.401;-0.012;4.9;-1.3;30.8;42.92;2458;2018-04-16 23:01:52:726
-2.622;-9.329;0.399;-2.69;-9.429;0.145;0.043;0.093;0.249;-0.034;0.315;-0.013;5.0;-1.3;30.9;42.92;2469;2018-04-16 23:01:52:737
-2.622;-9.335;0.402;-2.687;-9.43;0.124;0.073;0.105;0.28;-0.029;0.261;-0.012;5.0;-1.3;30.9;42.92;2479;2018-04-16 23:01:52:747
-2.611;-9.335;0.402;-2.687;-9.43;0.124;0.073;0.105;0.28;-0.037;0.216;-0.009;5.0;-1.2;30.8;42.92;2489;2018-04-16 23:01:52:757
-2.604;-9.372;0.391;-2.684;-9.431;0.111;0.085;0.071;0.288;-0.045;0.171;-0.006;5.0;-1.2;30.8;42.92;2499;2018-04-16 23:01:52:767
-2.604;-9.372;0.391;-2.684;-9.431;0.111;0.085;0.071;0.288;-0.053;0.122;-0.002;5.0;-1.3;30.8;42.92;2509;2018-04-16 23:01:52:777
-2.616;-9.369;0.381;-2.679;-9.433;0.107;0.064;0.064;0.273;-0.05;0.06;0.002;5.0;-1.3;30.8;42.92;2518;2018-04-16 23:01:52:786
-2.637;-9.363;0.424;-2.676;-9.434;0.121;0.047;0.078;0.319;-0.04;-0.009;0.007;5.1;-1.3;30.9;42.92;2529;2018-04-16 23:01:52:797
-2.62;-9.331;0.458;-2.676;-9.434;0.121;0.047;0.078;0.319;-0.015;-0.075;0.009;5.1;-1.3;30.9;42.92;2540;2018-04-16 23:01:52:808
-2.62;-9.331;0.458;-2.676;-9.434;0.121;0.047;0.078;0.319;-0.015;-0.075;0.009;5.1;-1.3;30.9;42.92;2548;2018-04-16 23:01:52:816
-2.594;-9.322;0.485;-2.672;-9.434;0.151;0.075;0.121;0.327;0.02;-0.149;0.016;5.1;-1.3;30.9;42.92;2559;2018-04-16 23:01:52:827
-2.569;-9.305;0.456;-2.672;-9.434;0.151;0.075;0.121;0.327;0.029;-0.177;0.015;5.0;-1.3;30.9;42.92;2569;2018-04-16 23:01:52:837
-2.569;-9.305;0.456;-2.668;-9.435;0.185;0.11;0.102;0.259;0.042;-0.203;0.013;5.0;-1.3;30.9;42.92;2578;2018-04-16 23:01:52:846
-2.55;-9.365;0.399;-2.668;-9.435;0.185;0.11;0.102;0.259;0.049;-0.235;0.013;4.9;-1.3;30.9;42.92;2589;2018-04-16 23:01:52:857
-2.571;-9.385;0.36;-2.665;-9.435;0.214;0.104;0.046;0.155;0.049;-0.249;0.015;4.9;-1.3;30.9;42.92;2599;2018-04-16 23:01:52:867
-2.565;-9.358;0.33;-2.663;-9.435;0.238;0.098;0.077;0.092;0.035;-0.259;0.012;4.8;-1.3;30.9;42.92;2610;2018-04-16 23:01:52:878
-2.565;-9.358;0.33;-2.663;-9.435;0.238;0.098;0.077;0.092;0.027;-0.265;0.012;4.8;-1.3;30.9;42.92;2619;2018-04-16 23:01:52:887
-2.6;-9.346;0.315;-2.663;-9.435;0.238;0.098;0.077;0.092;0.021;-0.265;0.012;4.8;-1.4;31.0;42.92;2629;2018-04-16 23:01:52:897
-2.6;-9.346;0.315;-2.664;-9.434;0.258;0.044;0.09;0.057;0.026;-0.271;0.012;4.8;-1.4;31.0;42.92;2639;2018-04-16 23:01:52:907
-2.649;-9.318;0.339;-2.664;-9.434;0.258;0.044;0.09;0.098;0.031;-0.272;0.015;4.7;-1.4;30.9;42.92;2649;2018-04-16 23:01:52:917
-2.676;-9.285;0.391;-2.665;-9.433;0.28;-0.014;0.138;0.098;0.031;-0.272;0.015;4.7;-1.4;30.9;42.92;2660;2018-04-16 23:01:52:928
-2.676;-9.285;0.391;-2.665;-9.433;0.28;-0.014;0.138;0.098;0.032;-0.238;0.018;4.6;-1.4;31.1;42.92;2669;2018-04-16 23:01:52:937
-2.696;-9.298;0.424;-2.668;-9.432;0.3;-0.028;0.134;0.123;0.032;-0.238;0.018;4.6;-1.4;31.1;42.92;2679;2018-04-16 23:01:52:947
-2.679;-9.321;0.456;-2.668;-9.432;0.3;-0.028;0.134;0.123;0.026;-0.162;0.02;4.5;-1.4;31.0;42.92;2689;2018-04-16 23:01:52:957
-2.679;-9.321;0.456;-2.671;-9.431;0.316;0.005;0.116;0.133;0.021;-0.104;0.017;4.5;-1.4;31.0;42.92;2699;2018-04-16 23:01:52:967
-2.692;-9.335;0.427;-2.671;-9.431;0.316;0.005;0.116;0.133;0.02;0.009;0.015;4.5;-1.5;31.0;42.92;2709;2018-04-16 23:01:52:977
-2.673;-9.369;0.426;-2.674;-9.429;0.325;0.001;0.061;0.101;0.02;0.009;0.015;4.5;-1.5;31.0;46.99;2719;2018-04-16 23:01:52:987
-2.654;-9.424;0.402;-2.674;-9.429;0.325;0.001;0.061;0.101;0.027;0.076;0.015;4.5;-1.5;31.0;46.99;2729;2018-04-16 23:01:52:997
-2.654;-9.424;0.402;-2.675;-9.429;0.329;0.036;-0.005;0.066;0.031;0.13;0.012;4.5;-1.5;31.0;46.99;2739;2018-04-16 23:01:53:007
-2.625;-9.468;0.372;-2.675;-9.429;0.329;0.036;-0.005;0.066;0.027;0.153;0.011;4.4;-1.6;31.0;46.99;2749;2018-04-16 23:01:53:017
-2.592;-9.491;0.362;-2.675;-9.429;0.328;0.083;-0.062;0.034;0.029;0.171;0.009;4.4;-1.6;31.0;46.99;2758;2018-04-16 23:01:53:026
-2.573;-9.425;0.338;-2.675;-9.429;0.328;0.083;-0.062;0.034;0.026;0.178;0.007;4.5;-1.5;31.0;46.99;2769;2018-04-16 23:01:53:037
-2.573;-9.425;0.338;-2.673;-9.43;0.323;0.111;-0.001;-0.002;0.022;0.18;0.002;4.5;-1.5;31.0;46.99;2778;2018-04-16 23:01:53:046
-2.58;-9.395;0.332;-2.673;-9.43;0.323;0.111;-0.001;-0.002;0.023;0.173;0.0;4.5;-1.5;31.0;46.99;2789;2018-04-16 23:01:53:057
-2.608;-9.376;0.344;-2.672;-9.43;0.318;0.064;0.054;0.025;0.026;0.165;0.0;4.5;-1.5;31.0;46.99;2799;2018-04-16 23:01:53:067
-2.6;-9.37;0.341;-2.672;-9.43;0.318;0.064;0.054;0.025;0.027;0.144;0.0;4.6;-1.5;31.0;46.99;2809;2018-04-16 23:01:53:077
-2.6;-9.369;0.298;-2.671;-9.431;0.316;0.062;0.049;0.005;0.023;0.128;-0.001;4.6;-1.5;31.0;46.99;2818;2018-04-16 23:01:53:086
-2.57;-9.369;0.298;-2.671;-9.431;0.316;0.062;0.049;0.005;0.016;0.109;-0.004;4.5;-1.5;31.0;46.99;2829;2018-04-16 23:01:53:097
-2.576;-9.372;0.294;-2.669;-9.431;0.312;0.093;0.059;-0.018;0.011;0.099;-0.004;4.5;-1.5;31.0;46.99;2839;2018-04-16 23:01:53:107
-2.576;-9.372;0.294;-2.669;-9.431;0.312;0.093;0.059;-0.018;-0.007;0.066;-0.002;4.5;-1.5;31.0;46.99;2849;2018-04-16 23:01:53:117
-2.569;-9.432;0.291;-2.665;-9.433;0.307;0.096;0.001;-0.016;-0.01;0.05;-0.002;4.6;-1.4;31.0;46.99;2859;2018-04-16 23:01:53:127
-2.569;-9.432;0.291;-2.665;-9.433;0.307;0.096;0.001;-0.016;-0.01;0.05;-0.002;4.6;-1.4;31.0;46.99;2869;2018-04-16 23:01:53:137
-2.586;-9.367;0.35;-2.662;-9.434;0.304;0.076;0.066;0.046;-0.017;-0.01;-0.001;4.7;-1.3;31.1;46.99;2879;2018-04-16 23:01:53:147
-2.635;-9.364;0.433;-2.662;-9.434;0.304;0.076;0.066;0.046;-0.02;-0.039;0.0;4.7;-1.3;31.1;46.99;2889;2018-04-16 23:01:53:157
-2.658;-9.351;0.499;-2.66;-9.434;0.308;0.028;0.073;0.149;-0.022;-0.031;-0.001;4.7;-1.3;31.0;46.99;2898;2018-04-16 23:01:53:166
-2.658;-9.351;0.499;-2.66;-9.434;0.308;0.028;0.073;0.149;-0.022;-0.031;-0.001;4.7;-1.3;31.0;46.99;2908;2018-04-16 23:01:53:176
-2.68;-9.337;0.517;-2.661;-9.434;0.312;-0.019;0.096;0.205;-0.032;-0.011;0.001;4.6;-1.2;30.9;46.99;2919;2018-04-16 23:01:53:187
-2.723;-9.305;0.504;-2.661;-9.434;0.312;-0.019;0.096;0.205;-0.029;0.009;0.001;4.6;-1.2;30.9;46.99;2928;2018-04-16 23:01:53:196
-2.732;-9.316;0.474;-2.664;-9.433;0.314;-0.073;0.124;0.165;-0.023;0.006;0.002;4.6;-1.2;30.9;46.99;2939;2018-04-16 23:01:53:207
-2.732;-9.316;0.474;-2.664;-9.433;0.314;-0.073;0.124;0.165;-0.013;-0.006;0.005;4.6;-1.2;31.0;46.99;2948;2018-04-16 23:01:53:216
-2.735;-9.313;0.456;-2.668;-9.431;0.319;-0.067;0.118;0.137;-0.013;-0.006;0.005;4.6;-1.2;31.0;46.99;2958;2018-04-16 23:01:53:226
-2.735;-9.313;0.456;-2.668;-9.431;0.319;-0.067;0.118;0.137;0.001;-0.029;0.01;4.6;-1.2;31.0;46.99;2969;2018-04-16 23:01:53:237
-2.672;-9.348;0.46;-2.671;-9.43;0.326;-0.001;0.082;0.134;-0.001;-0.033;0.013;4.6;-1.2;31.0;46.99;2979;2018-04-16 23:01:53:247
-2.672;-9.348;0.46;-2.671;-9.43;0.326;-0.001;0.082;0.134;-0.017;-0.046;0.015;4.6;-1.1;31.0;46.99;2989;2018-04-16 23:01:53:257
-2.567;-9.379;0.406;-2.671;-9.43;0.329;0.105;0.051;0.077;-0.02;-0.061;0.011;4.6;-1.1;31.0;46.99;2999;2018-04-16 23:01:53:267
-2.538;-9.403;0.425;-2.671;-9.43;0.329;0.105;0.051;0.077;-0.02;-0.081;0.004;4.5;-1.1;31.0;46.99;3009;2018-04-16 23:01:53:277
-2.538;-9.403;0.425;-2.667;-9.431;0.333;0.122;0.021;0.118;-0.02;-0.081;0.004;4.5;-1.1;31.0;46.99;3019;2018-04-16 23:01:53:287
-2.577;-9.409;0.474;-2.665;-9.432;0.337;0.069;0.033;0.168;-0.017;-0.095;-0.001;4.5;-1.0;30.9;49.98;3028;2018-04-16 23:01:53:296
-2.687;-9.404;0.545;-2.665;-9.432;0.337;0.069;0.033;0.168;-0.007;-0.092;-0.007;4.4;-1.0;30.8;49.98;3038;2018-04-16 23:01:53:306
-2.687;-9.404;0.545;-2.663;-9.432;0.347;-0.05;0.03;0.211;0.001;-0.072;-0.01;4.4;-1.0;30.8;49.98;3049;2018-04-16 23:01:53:317
-2.75;-9.406;0.558;-2.663;-9.432;0.353;-0.087;0.026;0.205;0.011;-0.055;-0.01;4.4;-1.0;30.7;49.98;3060;2018-04-16 23:01:53:328
-2.756;-9.365;0.508;-2.663;-9.432;0.353;-0.087;0.026;0.205;0.011;-0.055;-0.01;4.4;-1.0;30.7;49.98;3068;2018-04-16 23:01:53:336
-2.733;-9.346;0.455;-2.664;-9.431;0.362;-0.081;0.076;0.132;0.016;-0.037;-0.006;4.4;-1.0;30.6;49.98;3078;2018-04-16 23:01:53:346
-2.733;-9.346;0.455;-2.664;-9.431;0.362;-0.081;0.076;0.132;0.02;-0.032;-0.001;4.4;-1.0;30.6;49.98;3089;2018-04-16 23:01:53:357
-2.664;-9.346;0.378;-2.665;-9.43;0.369;-0.029;0.092;0.032;0.013;-0.042;-0.002;4.3;-1.0;30.6;49.98;3098;2018-04-16 23:01:53:366
-2.664;-9.346;0.378;-2.665;-9.43;0.369;-0.029;0.092;0.032;0.013;-0.042;-0.002;4.3;-1.0;30.6;49.98;3108;2018-04-16 23:01:53:376
-2.624;-9.336;0.375;-2.664;-9.43;0.373;0.024;0.089;-0.012;0.004;-0.055;-0.004;4.3;-1.0;30.4;49.98;3119;2018-04-16 23:01:53:387
-2.606;-9.334;0.387;-2.664;-9.43;0.373;0.024;0.089;-0.012;-0.016;-0.065;-0.006;4.3;-1.0;30.4;49.98;3129;2018-04-16 23:01:53:397
-2.606;-9.334;0.387;-2.662;-9.431;0.374;0.039;0.085;0.029;-0.032;-0.057;-0.006;4.3;-0.9;30.4;49.98;3139;2018-04-16 23:01:53:407
-2.638;-9.336;0.478;-2.662;-9.431;0.374;0.039;0.085;0.029;-0.032;-0.057;-0.006;4.3;-0.9;30.4;49.98;3149;2018-04-16 23:01:53:417
-2.696;-9.366;0.563;-2.661;-9.431;0.374;-0.017;0.086;0.16;-0.037;-0.043;-0.005;4.3;-0.9;30.4;49.98;3159;2018-04-16 23:01:53:427
-2.696;-9.366;0.563;-2.661;-9.431;0.374;-0.017;0.086;0.16;-0.029;-0.007;-0.006;4.3;-0.9;30.4;49.98;3169;2018-04-16 23:01:53:437
-2.735;-9.391;0.584;-2.661;-9.431;0.375;-0.074;0.04;0.209;-0.021;0.032;-0.006;4.2;-0.9;30.3;49.98;3179;2018-04-16 23:01:53:447
-2.759;-9.373;0.546;-2.661;-9.431;0.375;-0.074;0.04;0.209;-0.021;0.032;-0.006;4.2;-0.9;30.3;49.98;3189;2018-04-16 23:01:53:457
-2.747;-9.352;0.504;-2.663;-9.431;0.376;-0.102;0.057;0.172;-0.012;0.049;-0.004;4.2;-0.9;30.3;49.98;3199;2018-04-16 23:01:53:467
-2.747;-9.352;0.504;-2.663;-9.431;0.376;-0.102;0.057;0.172;-0.005;0.066;-0.004;4.2;-0.9;30.3;49.98;3209;2018-04-16 23:01:53:477
-2.691;-9.323;0.426;-2.666;-9.43;0.374;-0.053;0.103;0.091;-0.01;0.057;0.0;4.2;-0.9;30.3;49.98;3219;2018-04-16 23:01:53:487
-2.691;-9.323;0.426;-2.666;-9.43;0.374;-0.053;0.103;0.091;-0.016;0.043;0.006;4.2;-0.9;30.3;49.98;3229;2018-04-16 23:01:53:497
-2.636;-9.345;0.378;-2.667;-9.43;0.37;0.031;0.085;0.008;-0.02;0.001;0.006;4.3;-0.9;30.2;49.98;3239;2018-04-16 23:01:53:507
-2.608;-9.396;0.397;-2.667;-9.43;0.37;0.031;0.085;0.008;-0.022;-0.028;0.009;4.3;-0.9;30.2;49.98;3248;2018-04-16 23:01:53:516
-2.611;-9.374;0.448;-2.667;-9.43;0.368;0.061;0.032;0.051;-0.023;-0.05;0.009;4.3;-0.8;30.1;49.98;3259;2018-04-16 23:01:53:527
-2.611;-9.374;0.448;-2.667;-9.43;0.368;0.061;0.032;0.051;-0.024;-0.07;0.01;4.3;-0.8;30.1;49.98;3269;2018-04-16 23:01:53:537
-2.631;-9.376;0.485;-2.667;-9.43;0.37;0.036;0.054;0.115;-0.023;-0.077;0.01;4.3;-0.8;30.2;49.98;3279;2018-04-16 23:01:53:547
-2.635;-9.341;0.541;-2.667;-9.43;0.37;0.036;0.054;0.115;-0.023;-0.077;0.01;4.3;-0.8;30.2;49.98;3290;2018-04-16 23:01:53:558
-2.635;-9.341;0.541;-2.667;-9.43;0.374;0.013;0.092;0.193;-0.017;-0.066;0.004;4.3;-0.7;30.2;49.98;3299;2018-04-16 23:01:53:567
-2.672;-9.357;0.591;-2.667;-9.43;0.374;0.013;0.092;0.193;-0.006;-0.043;0.006;4.3;-0.7;30.2;49.98;3309;2018-04-16 23:01:53:577
-2.719;-9.397;0.543;-2.668;-9.429;0.38;-0.037;0.059;0.193;0.006;-0.02;0.006;4.3;-0.7;30.3;49.98;3319;2018-04-16 23:01:53:587
-2.719;-9.397;0.543;-2.668;-9.429;0.38;-0.037;0.059;0.193;0.006;-0.02;0.006;4.3;-0.7;30.3;49.98;3328;2018-04-16 23:01:53:596
-2.689;-9.402;0.49;-2.67;-9.428;0.387;-0.019;0.026;0.102;0.022;-0.013;0.006;4.3;-0.7;30.4;50.48;3339;2018-04-16 23:01:53:607
-2.689;-9.402;0.49;-2.67;-9.428;0.387;-0.019;0.026;0.102;0.038;-0.024;0.007;4.3;-0.7;30.4;50.48;3349;2018-04-16 23:01:53:617
-2.614;-9.388;0.391;-2.67;-9.428;0.396;0.056;0.04;-0.004;0.039;-0.027;0.006;4.3;-0.7;30.5;50.48;3359;2018-04-16 23:01:53:627
-2.569;-9.36;0.36;-2.67;-9.428;0.396;0.056;0.04;-0.004;0.04;-0.045;0.005;4.3;-0.7;30.5;50.48;3369;2018-04-16 23:01:53:637
-2.567;-9.354;0.384;-2.669;-9.428;0.404;0.097;0.072;-0.042;0.027;-0.04;0.005;4.3;-0.7;30.5;50.48;3379;2018-04-16 23:01:53:647
-2.567;-9.354;0.384;-2.669;-9.428;0.404;0.097;0.072;-0.042;0.027;-0.04;0.005;4.3;-0.6;30.5;50.48;3389;2018-04-16 23:01:53:657
-2.568;-9.342;0.43;-2.668;-9.428;0.409;0.1;0.086;0.021;0.009;-0.022;0.001;4.3;-0.6;30.5;50.48;3399;2018-04-16 23:01:53:667
-2.589;-9.354;0.449;-2.668;-9.428;0.409;0.1;0.086;0.021;-0.004;0.018;-0.005;4.3;-0.7;30.6;50.48;3409;2018-04-16 23:01:53:677
-2.589;-9.354;0.449;-2.665;-9.429;0.409;0.065;0.07;0.065;-0.005;0.04;-0.007;4.3;-0.7;30.6;50.48;3419;2018-04-16 23:01:53:687
-2.66;-9.37;0.482;-2.665;-9.429;0.409;0.065;0.07;0.065;-0.002;0.065;-0.009;4.4;-0.6;30.8;50.48;3429;2018-04-16 23:01:53:697
-2.677;-9.353;0.49;-2.664;-9.429;0.407;-0.012;0.076;0.083;-0.002;0.065;-0.009;4.4;-0.6;30.8;50.48;3439;2018-04-16 23:01:53:707
-2.695;-9.337;0.493;-2.665;-9.429;0.406;-0.03;0.092;0.087;0.005;0.086;-0.009;4.4;-0.6;30.7;50.48;3449;2018-04-16 23:01:53:717
-2.695;-9.337;0.493;-2.665;-9.429;0.406;-0.03;0.092;0.087;0.005;0.086;-0.009;4.4;-0.6;30.7;50.48;3459;2018-04-16 23:01:53:727
-2.717;-9.36;0.475;-2.666;-9.429;0.403;-0.051;0.069;0.072;0.009;0.126;-0.004;4.4;-0.5;30.7;50.48;3469;2018-04-16 23:01:53:737
-2.701;-9.379;0.441;-2.668;-9.428;0.398;-0.033;0.049;0.042;0.01;0.132;-0.001;4.4;-0.6;30.8;50.48;3479;2018-04-16 23:01:53:747
-2.701;-9.379;0.441;-2.668;-9.428;0.398;-0.033;0.049;0.042;0.007;0.126;0.001;4.4;-0.6;30.8;50.48;3489;2018-04-16 23:01:53:757
-2.637;-9.363;0.449;-2.668;-9.428;0.396;0.031;0.066;0.053;0.002;0.127;0.006;4.4;-0.6;30.8;50.48;3499;2018-04-16 23:01:53:767
-2.583;-9.36;0.438;-2.668;-9.428;0.396;0.031;0.066;0.053;0.002;0.127;0.006;4.4;-0.6;30.8;50.48;3509;2018-04-16 23:01:53:777
-2.583;-9.36;0.438;-2.669;-9.428;0.389;0.101;0.077;0.067;-0.01;0.119;0.004;4.4;-0.6;30.8;50.48;3518;2018-04-16 23:01:53:786
-2.587;-9.374;0.461;-2.67;-9.429;0.382;0.087;0.059;0.079;-0.013;0.09;0.005;4.4;-0.6;30.8;50.48;3529;2018-04-16 23:01:53:797
-2.582;-9.37;0.461;-2.67;-9.429;0.382;0.087;0.059;0.079;-0.007;0.068;0.001;4.4;-0.6;30.9;50.48;3539;2018-04-16 23:01:53:807
-2.591;-9.379;0.469;-2.67;-9.429;0.382;0.087;0.059;0.079;-0.007;0.068;0.001;4.4;-0.6;30.9;50.48;3549;2018-04-16 23:01:53:817
-2.607;-9.406;0.433;-2.669;-9.429;0.38;0.065;0.041;0.085;0.001;0.043;-0.005;4.3;-0.6;30.8;50.48;3559;2018-04-16 23:01:53:827
-2.607;-9.406;0.433;-2.669;-9.429;0.38;0.065;0.041;0.085;0.001;0.043;-0.005;4.3;-0.6;30.8;50.48;3569;2018-04-16 23:01:53:837
-2.604;-9.392;0.429;-2.667;-9.429;0.384;0.063;0.037;0.045;0.015;-0.022;-0.001;4.3;-0.6;30.7;50.48;3579;2018-04-16 23:01:53:847
-2.625;-9.396;0.399;-2.667;-9.429;0.384;0.063;0.037;0.045;0.009;-0.046;0.0;4.3;-0.6;30.7;50.48;3589;2018-04-16 23:01:53:857
-2.65;-9.385;0.405;-2.666;-9.429;0.389;0.034;0.028;0.004;0.004;-0.06;0.001;4.3;-0.5;30.7;50.48;3598;2018-04-16 23:01:53:866
-2.65;-9.385;0.405;-2.666;-9.429;0.389;0.034;0.028;0.004;0.004;-0.06;0.001;4.3;-0.5;30.7;50.48;3608;2018-04-16 23:01:53:876
-2.664;-9.388;0.394;-2.666;-9.429;0.394;0.002;0.041;0.0;0.005;-0.086;0.005;4.2;-0.5;30.7;50.48;3619;2018-04-16 23:01:53:887
-2.668;-9.354;0.445;-2.666;-9.429;0.394;0.002;0.041;0.0;0.004;-0.095;0.005;4.3;-0.5;30.8;50.48;3629;2018-04-16 23:01:53:897
-2.668;-9.354;0.445;-2.666;-9.429;0.4;-0.002;0.075;0.045;0.002;-0.092;0.005;4.3;-0.5;30.8;50.48;3639;2018-04-16 23:01:53:907
-2.65;-9.354;0.469;-2.666;-9.429;0.4;-0.002;0.075;0.045;-0.007;-0.053;0.009;4.2;-0.5;30.8;50.05;3650;2018-04-16 23:01:53:918
-2.65;-9.354;0.469;-2.667;-9.428;0.404;0.017;0.074;0.065;-0.007;-0.053;0.009;4.2;-0.5;30.8;50.05;3659;2018-04-16 23:01:53:927
-2.571;-9.358;0.484;-2.667;-9.428;0.403;0.095;0.071;0.08;-0.016;-0.015;0.007;4.2;-0.5;30.8;50.05;3673;2018-04-16 23:01:53:941
-2.571;-9.358;0.484;-2.667;-9.428;0.403;0.095;0.071;0.08;-0.017;0.002;0.005;4.2;-0.5;30.8;50.05;3679;2018-04-16 23:01:53:947
-2.576;-9.361;0.505;-2.667;-9.428;0.403;0.095;0.071;0.08;-0.017;0.002;0.005;4.1;-0.5;30.7;50.05;3689;2018-04-16 23:01:53:957
-2.576;-9.361;0.505;-2.666;-9.429;0.403;0.09;0.067;0.102;-0.005;0.023;0.001;4.1;-0.4;30.7;50.05;3699;2018-04-16 23:01:53:967
-2.606;-9.371;0.512;-2.666;-9.429;0.404;0.033;0.045;0.099;0.005;0.033;-0.004;4.1;-0.4;30.7;50.05;3709;2018-04-16 23:01:53:977
-2.649;-9.383;0.487;-2.665;-9.429;0.405;-0.026;0.052;0.079;0.013;0.055;-0.009;4.1;-0.4;30.7;50.05;3720;2018-04-16 23:01:53:988
-2.649;-9.383;0.487;-2.665;-9.429;0.405;-0.026;0.052;0.079;0.013;0.055;-0.009;4.1;-0.4;30.7;50.05;3730;2018-04-16 23:01:53:998
-2.714;-9.377;0.469;-2.665;-9.429;0.405;-0.049;0.052;0.064;0.013;0.065;-0.01;4.1;-0.4;30.7;50.05;3739;2018-04-16 23:01:54:007
-2.714;-9.377;0.469;-2.665;-9.429;0.405;-0.049;0.052;0.064;0.004;0.07;-0.007;4.1;-0.4;30.7;50.05;3749;2018-04-16 23:01:54:017
-2.693;-9.37;0.463;-2.665;-9.429;0.404;-0.035;0.065;0.055;-0.001;0.073;-0.007;4.0;-0.4;30.8;50.05;3759;2018-04-16 23:01:54:027
-2.648;-9.335;0.449;-2.665;-9.429;0.4;0.029;0.088;0.043;-0.009;0.072;-0.001;4.0;-0.4;30.8;50.05;3769;2018-04-16 23:01:54:037
-2.619;-9.343;0.437;-2.665;-9.429;0.4;0.029;0.088;0.043;-0.009;0.072;-0.001;4.0;-0.4;30.7;50.05;3779;2018-04-16 23:01:54:047
-2.619;-9.343;0.437;-2.665;-9.429;0.4;0.029;0.088;0.043;-0.011;0.062;-0.001;4.0;-0.4;30.7;50.05;3790;2018-04-16 23:01:54:058
-2.551;-9.358;0.43;-2.664;-9.43;0.395;0.068;0.077;0.042;-0.011;0.045;0.004;3.9;-0.3;30.7;50.05;3799;2018-04-16 23:01:54:067
-2.551;-9.358;0.43;-2.664;-9.43;0.395;0.068;0.077;0.042;-0.011;0.01;-0.001;3.9;-0.3;30.7;50.05;3809;2018-04-16 23:01:54:077
-2.567;-9.383;0.469;-2.663;-9.43;0.393;0.096;0.047;0.076;-0.011;0.01;-0.001;3.9;-0.3;30.8;50.05;3820;2018-04-16 23:01:54:088
-2.602;-9.413;0.485;-2.661;-9.431;0.395;0.055;0.027;0.107;-0.004;-0.017;-0.002;3.9;-0.3;30.8;50.05;3830;2018-04-16 23:01:54:098
-2.602;-9.413;0.485;-2.661;-9.431;0.395;0.055;0.027;0.107;-0.004;-0.017;-0.002;3.9;-0.3;30.8;50.05;3839;2018-04-16 23:01:54:107
-2.623;-9.371;0.508;-2.659;-9.431;0.397;0.007;0.094;0.106;-0.001;-0.027;-0.006;3.9;-0.3;30.7;50.05;3849;2018-04-16 23:01:54:117
-2.655;-9.319;0.511;-2.659;-9.431;0.397;0.007;0.094;0.106;-0.004;-0.026;-0.006;3.9;-0.3;30.8;50.05;3860;2018-04-16 23:01:54:128
-2.655;-9.307;0.497;-2.659;-9.431;0.399;-0.003;0.126;0.117;-0.005;-0.02;-0.002;3.9;-0.3;30.8;50.05;3869;2018-04-16 23:01:54:137
-2.659;-9.307;0.497;-2.659;-9.431;0.401;-0.001;0.105;0.066;-0.005;-0.02;-0.002;3.9;-0.3;30.7;50.05;3879;2018-04-16 23:01:54:147
-2.659;-9.307;0.497;-2.659;-9.431;0.401;-0.001;0.105;0.066;-0.009;-0.027;0.0;3.9;-0.3;30.7;50.05;3889;2018-04-16 23:01:54:157
-2.65;-9.346;0.448;-2.659;-9.431;0.401;0.009;0.085;0.047;-0.011;-0.053;0.004;3.9;-0.3;30.8;50.05;3899;2018-04-16 23:01:54:167
-2.653;-9.404;0.444;-2.659;-9.431;0.401;0.009;0.085;0.047;-0.011;-0.053;0.004;3.9;-0.3;30.8;50.05;3909;2018-04-16 23:01:54:177
-2.658;-9.394;0.442;-2.659;-9.431;0.402;0.002;0.037;0.039;-0.015;-0.071;0.005;3.8;-0.3;30.8;50.05;3919;2018-04-16 23:01:54:187
-2.658;-9.394;0.442;-2.659;-9.431;0.402;0.002;0.037;0.039;-0.015;-0.071;0.005;3.8;-0.3;30.8;50.05;3929;2018-04-16 23:01:54:197
-2.683;-9.382;0.458;-2.66;-9.43;0.405;-0.023;0.049;0.053;-0.017;-0.104;0.009;3.8;-0.3;30.6;50.05;3939;2018-04-16 23:01:54:207
-2.726;-9.335;0.528;-2.66;-9.43;0.405;-0.023;0.049;0.053;-0.016;-0.114;0.009;3.8;-0.3;30.6;50.05;3950;2018-04-16 23:01:54:218
-2.726;-9.335;0.528;-2.662;-9.43;0.41;-0.082;0.093;0.115;-0.016;-0.114;0.009;3.8;-0.3;30.6;50.05;3959;2018-04-16 23:01:54:227
-2.765;-9.306;0.551;-2.662;-9.43;0.41;-0.082;0.093;0.115;-0.009;-0.092;0.006;3.8;-0.3;30.6;50.05;3969;2018-04-16 23:01:54:237
-2.765;-9.306;0.551;-2.663;-9.429;0.415;-0.083;0.13;0.141;-0.007;-0.073;0.009;3.8;-0.3;30.6;50.26;3979;2018-04-16 23:01:54:247
-2.731;-9.311;0.524;-2.663;-9.429;0.415;-0.083;0.13;0.141;-0.005;-0.055;0.009;3.8;-0.2;30.6;50.26;3989;2018-04-16 23:01:54:257
-2.63;-9.355;0.479;-2.665;-9.428;0.419;-0.019;0.098;0.079;-0.005;-0.055;0.009;3.8;-0.2;30.6;50.26;3999;2018-04-16 23:01:54:267
-2.63;-9.355;0.479;-2.665;-9.428;0.419;-0.019;0.098;0.079;0.002;-0.042;0.012;3.8;-0.2;30.7;50.26;4009;2018-04-16 23:01:54:277
-2.547;-9.4;0.435;-2.666;-9.428;0.421;0.118;0.028;0.013;-0.001;-0.037;0.011;3.8;-0.2;30.7;50.26;4019;2018-04-16 23:01:54:287
-2.547;-9.4;0.435;-2.666;-9.428;0.421;0.118;0.028;0.013;-0.001;-0.037;0.011;3.8;-0.2;30.7;50.26;4029;2018-04-16 23:01:54:297
-2.519;-9.445;0.397;-2.664;-9.428;0.421;0.146;-0.017;-0.023;-0.013;-0.048;0.007;3.8;-0.3;30.6;50.26;4039;2018-04-16 23:01:54:307
-2.519;-9.445;0.397;-2.664;-9.428;0.421;0.146;-0.017;-0.023;-0.013;-0.048;0.007;3.8;-0.3;30.6;50.26;4050;2018-04-16 23:01:54:318
-2.519;-9.445;0.397;-2.664;-9.428;0.421;0.146;-0.017;-0.023;-0.013;-0.048;0.007;3.8;-0.3;30.6;50.26;4059;2018-04-16 23:01:54:327
-2.608;-9.396;0.467;-2.662;-9.429;0.423;0.054;0.033;0.044;-0.007;-0.072;-0.001;3.8;-0.2;30.6;50.26;4069;2018-04-16 23:01:54:337
-2.739;-9.339;0.518;-2.662;-9.429;0.423;0.054;0.033;0.044;0.0;-0.054;-0.005;3.8;-0.2;30.6;50.26;4078;2018-04-16 23:01:54:346
-2.739;-9.339;0.518;-2.662;-9.429;0.43;-0.09;0.102;0.088;0.009;-0.018;-0.005;3.9;-0.2;30.6;50.26;4089;2018-04-16 23:01:54:357
-2.753;-9.341;0.488;-2.663;-9.428;0.433;-0.082;0.075;0.035;0.01;0.001;-0.005;3.9;-0.2;30.6;50.26;4099;2018-04-16 23:01:54:367
-2.721;-9.354;0.447;-2.663;-9.428;0.433;-0.082;0.075;0.035;0.011;0.012;-0.004;3.9;-0.2;30.6;50.26;4108;2018-04-16 23:01:54:376
-2.721;-9.354;0.447;-2.663;-9.428;0.433;-0.048;0.063;0.002;0.011;0.012;-0.004;3.9;-0.2;30.6;50.26;4119;2018-04-16 23:01:54:387
-2.65;-9.364;0.395;-2.663;-9.428;0.433;0.013;0.064;-0.038;0.004;0.016;0.0;3.9;-0.1;30.5;50.26;4129;2018-04-16 23:01:54:397
-2.65;-9.364;0.395;-2.663;-9.428;0.433;0.013;0.064;-0.038;-0.004;0.01;0.001;3.9;-0.1;30.5;50.26;4138;2018-04-16 23:01:54:406
-2.569;-9.401;0.364;-2.662;-9.429;0.43;0.093;0.028;-0.066;-0.012;-0.011;-0.004;3.9;-0.1;30.5;50.26;4148;2018-04-16 23:01:54:416
-2.569;-9.378;0.421;-2.662;-9.429;0.43;0.093;0.028;-0.066;-0.012;-0.011;-0.004;3.9;-0.1;30.5;50.26;4158;2018-04-16 23:01:54:426
-2.569;-9.378;0.421;-2.66;-9.429;0.428;0.074;0.043;0.0;-0.015;-0.026;-0.004;3.9;-0.1;30.4;50.26;4168;2018-04-16 23:01:54:436
-2.599;-9.361;0.472;-2.66;-9.429;0.428;0.074;0.043;0.0;-0.009;-0.028;-0.006;3.9;-0.1;30.4;50.26;4178;2018-04-16 23:01:54:446
-2.678;-9.334;0.51;-2.658;-9.43;0.429;0.006;0.089;0.059;-0.004;-0.017;-0.01;4.0;0.0;30.5;50.26;4188;2018-04-16 23:01:54:456
-2.737;-9.339;0.503;-2.657;-9.43;0.431;-0.079;0.091;0.072;0.0;0.0;-0.011;4.0;0.0;30.5;50.26;4198;2018-04-16 23:01:54:466
-2.737;-9.339;0.503;-2.657;-9.43;0.431;-0.079;0.091;0.072;0.004;0.017;-0.011;4.0;0.0;30.4;50.26;4208;2018-04-16 23:01:54:476
-2.735;-9.343;0.476;-2.658;-9.43;0.43;-0.074;0.073;0.034;0.001;0.032;-0.009;4.0;0.0;30.4;50.26;4218;2018-04-16 23:01:54:486
-2.735;-9.343;0.476;-2.658;-9.43;0.43;-0.074;0.073;0.034;-0.006;0.044;-0.007;4.0;0.0;30.5;50.26;4229;2018-04-16 23:01:54:497
-2.702;-9.357;0.451;-2.658;-9.43;0.428;-0.044;0.073;0.024;-0.015;0.05;-0.001;4.1;0.0;30.6;50.26;4239;2018-04-16 23:01:54:507
-2.665;-9.378;0.421;-2.658;-9.43;0.428;-0.044;0.073;0.024;-0.015;0.05;-0.001;4.1;0.0;30.6;50.26;4249;2018-04-16 23:01:54:517
-2.665;-9.378;0.421;-2.659;-9.43;0.421;0.005;0.053;-0.011;-0.023;0.045;0.001;4.1;0.0;30.6;50.26;4259;2018-04-16 23:01:54:527
-2.632;-9.379;0.449;-2.659;-9.43;0.421;0.005;0.053;-0.011;-0.026;0.024;0.006;4.1;0.0;30.6;50.26;4268;2018-04-16 23:01:54:536
-2.607;-9.36;0.475;-2.659;-9.43;0.416;0.036;0.063;0.051;-0.028;0.015;0.002;4.1;0.0;30.5;50.26;4279;2018-04-16 23:01:54:547
-2.607;-9.36;0.475;-2.659;-9.43;0.416;0.036;0.063;0.051;-0.027;0.009;-0.001;4.1;0.0;30.5;50.26;4288;2018-04-16 23:01:54:556
-2.61;-9.361;0.502;-2.659;-9.43;0.412;0.049;0.069;0.09;-0.024;0.001;-0.001;4.1;0.0;30.5;51.13;4298;2018-04-16 23:01:54:566
-2.654;-9.386;0.506;-2.658;-9.431;0.41;-0.001;0.048;0.086;-0.017;-0.005;-0.007;4.1;0.0;30.5;51.13;4309;2018-04-16 23:01:54:577
-2.676;-9.391;0.514;-2.658;-9.431;0.41;-0.001;0.048;0.086;-0.01;-0.016;-0.007;4.1;0.0;30.5;51.13;4319;2018-04-16 23:01:54:587
-2.676;-9.391;0.514;-2.658;-9.431;0.41;-0.001;0.048;0.086;-0.01;-0.016;-0.007;4.1;0.0;30.5;51.13;4329;2018-04-16 23:01:54:597
-2.685;-9.371;0.494;-2.657;-9.431;0.411;-0.029;0.06;0.083;-0.002;-0.022;-0.009;4.1;0.0;30.5;51.13;4339;2018-04-16 23:01:54:607
-2.69;-9.376;0.454;-2.657;-9.431;0.411;-0.029;0.06;0.083;0.0;-0.027;-0.007;4.1;0.0;30.5;51.13;4348;2018-04-16 23:01:54:616
-2.66;-9.363;0.421;-2.656;-9.431;0.413;-0.033;0.057;0.028;-0.007;-0.034;-0.004;4.1;0.0;30.6;51.13;4359;2018-04-16 23:01:54:627
-2.66;-9.363;0.421;-2.656;-9.431;0.413;-0.033;0.057;0.028;-0.007;-0.034;-0.004;4.1;0.0;30.6;51.13;4369;2018-04-16 23:01:54:637
-2.62;-9.341;0.433;-2.655;-9.431;0.413;0.006;0.083;0.016;-0.011;-0.038;0.001;4.1;0.0;30.6;51.13;4379;2018-04-16 23:01:54:647
-2.607;-9.351;0.431;-2.656;-9.431;0.412;0.048;0.081;0.019;-0.023;-0.046;0.005;4.1;0.0;30.6;51.13;4389;2018-04-16 23:01:54:657
-2.607;-9.351;0.431;-2.656;-9.431;0.412;0.048;0.081;0.019;-0.023;-0.046;0.005;4.1;0.0;30.6;51.13;4400;2018-04-16 23:01:54:668
-2.6;-9.355;0.487;-2.656;-9.431;0.412;0.048;0.081;0.019;-0.026;-0.049;0.007;4.1;0.0;30.6;51.13;4410;2018-04-16 23:01:54:678
-2.6;-9.355;0.515;-2.656;-9.431;0.411;0.04;0.082;0.07;-0.023;-0.045;0.005;4.1;0.0;30.7;51.13;4419;2018-04-16 23:01:54:687
-2.643;-9.365;0.515;-2.656;-9.431;0.411;0.04;0.082;0.07;-0.02;-0.028;0.004;4.1;0.0;30.7;51.13;4429;2018-04-16 23:01:54:697
-2.672;-9.357;0.53;-2.656;-9.431;0.41;-0.007;0.083;0.12;-0.017;-0.005;0.002;4.1;0.0;30.8;51.13;4439;2018-04-16 23:01:54:707
-2.672;-9.357;0.53;-2.656;-9.431;0.41;-0.007;0.083;0.12;-0.017;-0.005;0.002;4.1;0.0;30.8;51.13;4449;2018-04-16 23:01:54:717
-2.685;-9.378;0.516;-2.657;-9.431;0.409;-0.028;0.053;0.107;-0.015;0.01;0.002;4.1;0.0;30.9;51.13;4459;2018-04-16 23:01:54:727
-2.654;-9.354;0.49;-2.657;-9.431;0.409;-0.028;0.053;0.107;-0.016;0.018;0.002;4.1;0.0;30.9;51.13;4469;2018-04-16 23:01:54:737
-2.654;-9.354;0.49;-2.658;-9.431;0.407;-0.005;0.087;0.078;-0.016;0.018;0.002;4.1;-0.1;31.0;51.13;4479;2018-04-16 23:01:54:747
-2.648;-9.335;0.484;-2.658;-9.431;0.407;-0.005;0.087;0.078;-0.013;0.022;0.004;4.1;-0.1;31.0;51.13;4489;2018-04-16 23:01:54:757
-2.648;-9.327;0.48;-2.659;-9.431;0.405;0.011;0.104;0.075;-0.012;0.021;0.002;4.1;-0.1;31.1;51.13;4499;2018-04-16 23:01:54:767
-2.674;-9.376;0.48;-2.659;-9.431;0.405;0.011;0.104;0.075;-0.005;0.011;0.001;4.1;-0.1;31.1;51.13;4509;2018-04-16 23:01:54:777
-2.674;-9.376;0.48;-2.66;-9.43;0.405;-0.007;0.042;0.068;-0.005;0.011;0.001;4.1;-0.2;31.1;51.13;4519;2018-04-16 23:01:54:787
-2.662;-9.379;0.466;-2.66;-9.43;0.405;-0.007;0.042;0.068;0.005;-0.007;0.005;4.1;-0.2;31.1;51.13;4529;2018-04-16 23:01:54:797
-2.632;-9.388;0.451;-2.661;-9.43;0.408;0.028;0.042;0.043;0.009;-0.021;0.006;4.1;-0.2;31.0;51.13;4539;2018-04-16 23:01:54:807
-2.616;-9.38;0.457;-2.661;-9.43;0.408;0.028;0.042;0.043;0.011;-0.035;0.006;4.1;-0.2;31.0;51.13;4549;2018-04-16 23:01:54:817
-2.616;-9.38;0.457;-2.661;-9.43;0.412;0.064;0.052;0.044;0.011;-0.035;0.006;4.1;-0.2;31.0;51.13;4559;2018-04-16 23:01:54:827
-2.586;-9.382;0.453;-2.661;-9.43;0.412;0.064;0.052;0.044;0.007;-0.039;0.006;4.1;-0.2;31.1;51.13;4569;2018-04-16 23:01:54:837
-2.558;-9.373;0.464;-2.661;-9.43;0.416;0.102;0.056;0.048;0.007;-0.04;0.009;4.1;-0.2;31.1;51.13;4580;2018-04-16 23:01:54:848
-2.557;-9.372;0.491;-2.66;-9.43;0.42;0.103;0.058;0.071;0.009;-0.029;0.005;4.1;-0.2;31.1;51.13;4590;2018-04-16 23:01:54:858
-2.557;-9.372;0.491;-2.66;-9.43;0.42;0.103;0.058;0.071;0.007;-0.005;0.001;4.1;-0.2;31.2;51.13;4599;2018-04-16 23:01:54:867
-2.616;-9.377;0.493;-2.66;-9.43;0.42;0.103;0.058;0.071;0.007;-0.005;0.001;4.1;-0.2;31.2;51.13;4608;2018-04-16 23:01:54:876
-2.672;-9.347;0.494;-2.659;-9.43;0.422;0.021;0.076;0.077;0.005;0.022;-0.002;4.1;-0.3;31.2;51.42;4619;2018-04-16 23:01:54:887
-2.672;-9.347;0.494;-2.659;-9.43;0.422;0.021;0.076;0.077;0.006;0.045;0.0;4.1;-0.3;31.2;51.42;4629;2018-04-16 23:01:54:897
-2.703;-9.333;0.493;-2.66;-9.43;0.421;-0.047;0.099;0.083;0.009;0.061;0.002;4.1;-0.3;31.2;51.42;4639;2018-04-16 23:01:54:907
-2.703;-9.333;0.493;-2.66;-9.43;0.421;-0.047;0.099;0.083;0.012;0.062;0.002;4.1;-0.3;31.2;51.42;4648;2018-04-16 23:01:54:916
-2.699;-9.312;0.443;-2.662;-9.429;0.421;-0.037;0.117;0.022;0.012;0.057;0.004;4.2;-0.2;31.2;51.42;4659;2018-04-16 23:01:54:927
-2.673;-9.331;0.411;-2.662;-9.429;0.421;-0.037;0.117;0.022;0.011;0.048;0.006;4.2;-0.2;31.2;51.42;4669;2018-04-16 23:01:54:937
-2.673;-9.331;0.411;-2.664;-9.429;0.42;-0.009;0.097;-0.009;0.011;0.048;0.006;4.2;-0.2;31.2;51.42;4679;2018-04-16 23:01:54:947
-2.63;-9.359;0.401;-2.664;-9.429;0.42;-0.009;0.097;-0.009;-0.001;0.015;0.007;4.2;-0.3;31.3;51.42;4689;2018-04-16 23:01:54:957
-2.586;-9.395;0.389;-2.665;-9.428;0.419;0.079;0.033;-0.03;-0.009;-0.001;0.009;4.2;-0.2;31.3;51.42;4699;2018-04-16 23:01:54:967
-2.586;-9.395;0.389;-2.665;-9.428;0.419;0.079;0.033;-0.03;-0.009;-0.001;0.009;4.2;-0.2;31.3;51.42;4709;2018-04-16 23:01:54:977
-2.589;-9.398;0.437;-2.665;-9.428;0.417;0.076;0.03;0.02;-0.015;-0.026;0.01;4.2;-0.2;31.3;51.42;4719;2018-04-16 23:01:54:987
-2.659;-9.413;0.451;-2.665;-9.428;0.417;0.076;0.03;0.02;-0.013;-0.044;0.007;4.2;-0.2;31.3;51.42;4729;2018-04-16 23:01:54:997
-2.659;-9.413;0.451;-2.666;-9.428;0.418;-0.001;0.027;0.036;-0.009;-0.055;0.01;4.1;-0.2;31.3;51.42;4739;2018-04-16 23:01:55:007
-2.72;-9.421;0.479;-2.666;-9.428;0.418;-0.001;0.027;0.036;-0.007;-0.066;0.007;4.1;-0.3;31.3;51.42;4749;2018-04-16 23:01:55:017
-2.772;-9.416;0.472;-2.668;-9.427;0.421;-0.105;0.011;0.051;-0.007;-0.066;0.007;4.1;-0.3;31.3;51.42;4759;2018-04-16 23:01:55:027
-2.772;-9.416;0.378;-2.671;-9.426;0.423;-0.128;0.011;-0.045;-0.006;-0.072;0.015;4.1;-0.3;31.3;51.42;4769;2018-04-16 23:01:55:037
-2.799;-9.415;0.378;-2.671;-9.426;0.423;-0.128;0.011;-0.045;-0.006;-0.072;0.015;4.1;-0.3;31.3;51.42;4779;2018-04-16 23:01:55:047
-2.783;-9.376;0.329;-2.671;-9.426;0.423;-0.128;0.011;-0.045;-0.011;-0.099;0.02;4.1;-0.3;31.4;51.42;4789;2018-04-16 23:01:55:057
-2.783;-9.376;0.329;-2.675;-9.425;0.425;-0.107;0.047;-0.108;-0.011;-0.099;0.02;4.1;-0.3;31.4;51.42;4798;2018-04-16 23:01:55:066
-2.772;-9.359;0.308;-2.675;-9.425;0.425;-0.107;0.047;-0.108;-0.02;-0.126;0.023;4.0;-0.4;31.4;51.42;4809;2018-04-16 23:01:55:077
-2.755;-9.306;0.279;-2.679;-9.424;0.426;-0.075;0.118;-0.147;-0.031;-0.147;0.027;4.0;-0.4;31.4;51.42;4819;2018-04-16 23:01:55:087
-2.676;-9.309;0.212;-2.679;-9.424;0.426;-0.075;0.118;-0.147;-0.018;-0.189;0.034;4.0;-0.4;31.3;51.42;4829;2018-04-16 23:01:55:097
-2.629;-9.392;0.192;-2.684;-9.422;0.431;0.026;0.087;-0.226;-0.006;-0.225;0.035;4.0;-0.4;31.3;51.42;4839;2018-04-16 23:01:55:107
-2.629;-9.392;0.192;-2.684;-9.422;0.431;0.026;0.087;-0.226;0.001;-0.253;0.031;4.0;-0.4;31.5;51.42;4848;2018-04-16 23:01:55:116
-2.644;-9.47;0.208;-2.687;-9.421;0.442;0.043;-0.049;-0.234;0.006;-0.266;0.027;4.0;-0.3;31.5;51.42;4860;2018-04-16 23:01:55:128
-2.66;-9.41;0.202;-2.687;-9.421;0.442;0.043;-0.049;-0.234;0.006;-0.266;0.027;4.0;-0.3;31.5;51.42;4869;2018-04-16 23:01:55:137
-2.66;-9.41;0.202;-2.689;-9.42;0.454;0.027;0.041;-0.242;-0.001;-0.253;0.02;4.0;-0.4;31.4;51.42;4879;2018-04-16 23:01:55:147
-2.673;-9.324;0.256;-2.689;-9.42;0.454;0.027;0.041;-0.242;-0.007;-0.228;0.01;4.0;-0.4;31.3;51.42;4889;2018-04-16 23:01:55:157
-2.673;-9.324;0.256;-2.689;-9.42;0.454;0.027;0.041;-0.242;-0.007;-0.228;0.01;4.0;-0.4;31.3;51.42;4899;2018-04-16 23:01:55:167
-2.699;-9.292;0.278;-2.689;-9.419;0.461;-0.01;0.128;-0.184;-0.009;-0.189;0.007;4.0;-0.4;31.4;51.42;4909;2018-04-16 23:01:55:177
-2.63;-9.416;0.205;-2.689;-9.42;0.46;0.058;0.003;-0.255;-0.017;-0.072;0.001;4.0;-0.4;31.4;51.42;4919;2018-04-16 23:01:55:187
-2.63;-9.416;0.205;-2.689;-9.42;0.46;0.058;0.003;-0.255;-0.02;0.029;-0.005;4.0;-0.4;31.4;51.42;4929;2018-04-16 23:01:55:197
-2.555;-9.395;0.164;-2.689;-9.42;0.46;0.058;0.003;-0.255;-0.02;0.029;-0.005;4.0;-0.4;31.4;50.88;4939;2018-04-16 23:01:55:207
-2.555;-9.395;0.164;-2.686;-9.421;0.45;0.148;0.073;-0.298;-0.02;0.068;-0.016;4.0;-0.5;31.4;50.88;4949;2018-04-16 23:01:55:217
-2.525;-9.268;0.166;-2.683;-9.422;0.443;0.158;0.154;-0.277;-0.017;0.103;-0.024;4.0;-0.5;31.4;50.88;4959;2018-04-16 23:01:55:227
-2.525;-9.268;0.166;-2.676;-9.425;0.43;0.083;0.286;-0.254;-0.012;0.171;-0.046;4.0;-0.5;31.5;50.88;4969;2018-04-16 23:01:55:237
-2.593;-9.139;0.176;-2.676;-9.425;0.43;0.083;0.286;-0.254;-0.012;0.171;-0.046;4.0;-0.5;31.4;50.88;4979;2018-04-16 23:01:55:247
-2.709;-9.158;0.209;-2.676;-9.425;0.43;0.083;0.286;-0.254;-0.024;0.213;-0.051;4.0;-0.5;31.4;50.88;4989;2018-04-16 23:01:55:257
-2.741;-9.221;0.2;-2.669;-9.428;0.411;-0.046;0.267;-0.198;-0.05;0.248;-0.053;4.0;-0.6;31.5;50.88;4999;2018-04-16 23:01:55:267
-2.741;-9.221;0.2;-2.669;-9.428;0.411;-0.046;0.267;-0.198;-0.05;0.248;-0.053;4.0;-0.6;31.5;50.88;5009;2018-04-16 23:01:55:277
-2.776;-9.273;0.181;-2.663;-9.43;0.386;-0.114;0.158;-0.205;-0.06;0.252;-0.05;4.0;-0.7;31.6;50.88;5019;2018-04-16 23:01:55:287
-2.808;-9.413;0.092;-2.663;-9.43;0.386;-0.114;0.158;-0.205;-0.065;0.194;-0.045;4.0;-0.7;31.6;50.88;5029;2018-04-16 23:01:55:297
-2.826;-9.471;0.073;-2.657;-9.433;0.361;-0.168;-0.015;-0.298;-0.045;0.111;-0.045;4.0;-0.7;31.6;50.88;5039;2018-04-16 23:01:55:307
-2.826;-9.471;0.073;-2.657;-9.433;0.361;-0.168;-0.015;-0.298;-0.015;0.005;-0.04;4.0;-0.7;31.6;50.88;5049;2018-04-16 23:01:55:317
-2.817;-9.495;0.054;-2.65;-9.435;0.356;-0.166;-0.06;-0.302;0.001;-0.046;-0.038;4.0;-0.7;31.6;50.88;5059;2018-04-16 23:01:55:327
-2.817;-9.495;0.054;-2.65;-9.435;0.356;-0.166;-0.06;-0.302;0.001;-0.046;-0.038;4.0;-0.7;31.5;50.88;5069;2018-04-16 23:01:55:337
-2.734;-9.341;0.096;-2.644;-9.436;0.368;-0.091;0.095;-0.273;0.038;-0.198;-0.037;4.0;-0.7;31.5;50.88;5079;2018-04-16 23:01:55:347
-2.658;-9.158;0.156;-2.644;-9.436;0.368;-0.091;0.095;-0.273;0.039;-0.224;-0.039;4.0;-0.7;31.2;50.88;5089;2018-04-16 23:01:55:357
-2.658;-9.158;0.156;-2.636;-9.438;0.385;-0.003;0.324;-0.242;0.024;-0.208;-0.043;4.0;-0.7;31.2;50.88;5098;2018-04-16 23:01:55:366
-2.608;-9.128;0.138;-2.636;-9.438;0.385;-0.003;0.324;-0.242;0.011;-0.183;-0.043;4.0;-0.6;31.2;50.88;5109;2018-04-16 23:01:55:377
-2.608;-9.183;0.049;-2.626;-9.44;0.394;0.026;0.257;-0.31;0.002;-0.176;-0.046;4.0;-0.6;31.2;50.88;5119;2018-04-16 23:01:55:387
-2.66;-9.257;-0.001;-2.616;-9.443;0.402;-0.044;0.186;-0.403;0.012;-0.217;-0.051;4.1;-0.7;31.2;50.88;5129;2018-04-16 23:01:55:397
-2.66;-9.257;-0.001;-2.616;-9.443;0.402;-0.044;0.186;-0.403;0.012;-0.217;-0.051;4.1;-0.7;31.1;50.88;5139;2018-04-16 23:01:55:407
-2.672;-9.233;-0.078;-2.616;-9.443;0.402;-0.044;0.186;-0.403;0.029;-0.288;-0.048;4.1;-0.7;31.1;50.88;5149;2018-04-16 23:01:55:417
-2.672;-9.233;-0.078;-2.605;-9.445;0.423;-0.098;0.217;-0.534;0.055;-0.379;-0.05;4.1;-0.8;31.1;50.88;5159;2018-04-16 23:01:55:427
-2.788;-9.285;-0.204;-2.605;-9.445;0.423;-0.098;0.217;-0.534;0.112;-0.564;-0.043;4.1;-0.8;31.1;50.88;5169;2018-04-16 23:01:55:437
-2.765;-9.395;-0.069;-2.595;-9.446;0.468;-0.202;0.075;-0.587;0.112;-0.564;-0.043;4.1;-0.8;31.0;50.88;5179;2018-04-16 23:01:55:447
-2.765;-9.395;-0.069;-2.595;-9.446;0.468;-0.202;0.075;-0.587;0.138;-0.716;-0.026;4.1;-0.8;31.0;50.88;5189;2018-04-16 23:01:55:457
-2.686;-9.459;-0.044;-2.585;-9.446;0.52;-0.102;-0.014;-0.564;0.084;-0.7;-0.021;4.2;-0.8;30.9;50.88;5199;2018-04-16 23:01:55:467
-2.686;-9.459;-0.044;-2.585;-9.446;0.52;-0.102;-0.014;-0.564;-0.044;-0.633;-0.033;4.2;-0.8;30.9;50.88;5209;2018-04-16 23:01:55:477
-2.677;-9.598;0.049;-2.573;-9.447;0.545;-0.104;-0.151;-0.495;-0.109;-0.566;-0.045;4.3;-0.8;30.8;50.88;5220;2018-04-16 23:01:55:488
-2.577;-9.328;0.267;-2.558;-9.452;0.539;0.041;0.307;-0.234;-0.181;-0.44;-0.061;4.3;-0.8;30.8;50.88;5229;2018-04-16 23:01:55:497
-2.473;-8.971;0.352;-2.558;-9.452;0.539;0.041;0.307;-0.234;-0.227;-0.321;-0.089;4.3;-0.7;30.9;50.88;5239;2018-04-16 23:01:55:507
-2.473;-8.971;0.352;-2.558;-9.452;0.539;0.041;0.307;-0.234;-0.241;-0.208;-0.122;4.3;-0.7;30.9;50.88;5249;2018-04-16 23:01:55:517
-2.466;-8.515;0.622;-2.533;-9.461;0.504;0.067;0.946;0.119;-0.244;-0.14;-0.139;4.5;-0.7;30.9;50.88;5259;2018-04-16 23:01:55:527
-2.466;-8.515;0.622;-2.533;-9.461;0.504;0.067;0.946;0.119;-0.244;-0.14;-0.139;4.5;-0.7;30.9;50.88;5268;2018-04-16 23:01:55:536
-2.72;-8.519;0.771;-2.503;-9.471;0.443;-0.217;0.953;0.328;-0.294;0.263;-0.169;4.6;-0.8;30.8;50.79;5279;2018-04-16 23:01:55:547
-2.589;-8.619;0.523;-2.503;-9.471;0.443;-0.217;0.953;0.328;-0.211;0.397;-0.14;4.6;-0.8;30.8;50.79;5289;2018-04-16 23:01:55:557
-2.643;-8.722;0.499;-2.48;-9.48;0.386;-0.088;0.835;0.091;-0.054;0.331;-0.154;4.7;-0.8;30.8;50.79;5300;2018-04-16 23:01:55:568
-2.643;-8.722;0.499;-2.48;-9.48;0.386;-0.088;0.835;0.091;-0.054;0.331;-0.154;4.7;-0.8;30.8;50.79;5309;2018-04-16 23:01:55:577
-2.946;-8.988;0.539;-2.456;-9.487;0.363;-0.49;0.499;0.176;-0.023;0.369;-0.164;4.8;-0.7;30.7;50.79;5319;2018-04-16 23:01:55:587
-2.946;-8.988;0.539;-2.456;-9.487;0.363;-0.49;0.499;0.176;-0.075;0.5;-0.108;4.8;-0.7;30.7;50.79;5329;2018-04-16 23:01:55:597
-3.103;-9.188;0.254;-2.445;-9.491;0.324;-0.658;0.304;-0.07;-0.075;0.5;-0.108;4.9;-0.8;30.7;50.79;5339;2018-04-16 23:01:55:607
-3.103;-9.188;0.254;-2.445;-9.491;0.324;-0.658;0.304;-0.07;-0.147;0.527;-0.064;4.9;-0.8;30.7;50.79;5349;2018-04-16 23:01:55:617
-3.327;-9.392;0.268;-2.446;-9.493;0.267;-0.881;0.101;0.001;-0.186;0.514;-0.044;5.0;-0.8;30.8;50.79;5359;2018-04-16 23:01:55:627
-3.46;-9.74;0.226;-2.446;-9.493;0.267;-0.881;0.101;0.001;-0.206;0.45;0.013;5.0;-0.8;30.8;50.79;5369;2018-04-16 23:01:55:637
-3.425;-9.725;0.297;-2.454;-9.492;0.206;-0.969;-0.259;0.038;-0.197;0.367;0.04;5.1;-0.8;30.8;50.79;5379;2018-04-16 23:01:55:647
-3.425;-9.725;0.297;-2.454;-9.492;0.206;-0.969;-0.259;0.038;-0.197;0.367;0.04;5.1;-0.8;30.8;50.79;5389;2018-04-16 23:01:55:657
-3.65;-9.821;0.473;-2.47;-9.489;0.154;-1.18;-0.332;0.319;-0.195;0.291;0.072;5.1;-0.8;30.8;50.79;5399;2018-04-16 23:01:55:667
-3.65;-9.821;0.473;-2.47;-9.489;0.154;-1.18;-0.332;0.319;-0.177;0.265;0.187;5.1;-0.8;30.8;50.79;5409;2018-04-16 23:01:55:677
-3.419;-9.445;0.564;-2.511;-9.479;0.11;-0.908;0.034;0.454;-0.177;0.265;0.187;5.1;-0.9;30.8;50.79;5419;2018-04-16 23:01:55:687
-3.079;-9.194;0.549;-2.511;-9.479;0.11;-0.908;0.034;0.454;-0.151;0.258;0.285;5.1;-0.9;30.8;50.79;5430;2018-04-16 23:01:55:698
-2.95;-9.201;0.523;-2.578;-9.461;0.077;-0.372;0.261;0.446;-0.117;0.253;0.351;5.1;-0.8;30.8;50.79;5440;2018-04-16 23:01:55:708
-2.95;-9.201;0.523;-2.578;-9.461;0.077;-0.372;0.261;0.446;-0.117;0.253;0.351;5.1;-0.8;30.8;50.79;5449;2018-04-16 23:01:55:717
-1.998;-9.511;0.217;-2.65;-9.441;0.072;0.652;-0.07;0.145;0.042;0.068;0.406;5.1;-1.0;30.9;50.79;5460;2018-04-16 23:01:55:728
-1.998;-9.511;0.217;-2.65;-9.441;0.072;0.652;-0.07;0.145;0.042;0.068;0.406;5.1;-1.0;30.9;50.79;5469;2018-04-16 23:01:55:737
-1.405;-10.373;0.212;-2.711;-9.424;0.131;1.157;-0.843;0.091;0.301;-0.353;0.342;5.1;-1.0;30.9;50.79;5479;2018-04-16 23:01:55:747
-0.724;-10.715;0.286;-2.711;-9.424;0.131;1.157;-0.843;0.091;0.562;-0.701;0.224;5.1;-1.0;30.9;50.79;5489;2018-04-16 23:01:55:757
-0.443;-10.667;0.326;-2.756;-9.408;0.261;2.148;-1.31;0.065;0.674;-0.778;0.154;5.1;-1.1;31.0;50.79;5499;2018-04-16 23:01:55:767
-0.443;-10.667;0.326;-2.756;-9.408;0.261;2.148;-1.31;0.065;0.674;-0.778;0.154;5.1;-1.1;31.0;50.79;5509;2018-04-16 23:01:55:777
-0.013;-10.2;0.147;-2.763;-9.399;0.44;2.75;-0.801;-0.293;0.784;-0.778;0.087;5.1;-1.1;31.0;50.79;5521;2018-04-16 23:01:55:789
-0.013;-10.2;0.147;-2.763;-9.399;0.44;2.75;-0.801;-0.293;0.883;-0.542;-0.1;5.1;-1.1;31.0;50.79;5529;2018-04-16 23:01:55:797
0.464;-9.638;-0.315;-2.708;-9.405;0.624;3.173;-0.233;-0.938;0.883;-0.542;-0.1;5.0;-1.1;30.9;50.79;5538;2018-04-16 23:01:55:806
0.286;-9.641;-0.779;-2.708;-9.405;0.624;3.173;-0.233;-0.938;0.693;-0.14;-0.227;5.0;-1.1;30.9;50.79;5549;2018-04-16 23:01:55:817
0.286;-9.641;-0.779;-2.635;-9.419;0.712;2.828;-0.247;-1.546;0.437;0.142;-0.254;5.0;-1.0;30.9;50.79;5559;2018-04-16 23:01:55:827
-0.043;-9.61;-0.922;-2.635;-9.419;0.712;2.828;-0.247;-1.546;0.032;0.346;-0.242;5.0;-1.0;30.9;50.79;5570;2018-04-16 23:01:55:838
-0.467;-9.489;-0.735;-2.572;-9.438;0.688;2.105;-0.051;-1.423;-0.158;0.215;-0.268;5.0;-1.0;30.9;50.79;5579;2018-04-16 23:01:55:847
-0.467;-9.489;-0.735;-2.572;-9.438;0.688;2.105;-0.051;-1.423;-0.158;0.215;-0.268;5.0;-1.0;30.9;50.79;5589;2018-04-16 23:01:55:857
-2.004;-9.275;0.381;-2.52;-9.455;0.647;0.516;0.18;-0.266;-0.153;0.06;-0.233;5.0;-1.0;30.9;51.48;5599;2018-04-16 23:01:55:867
-2.004;-9.275;0.381;-2.52;-9.455;0.647;0.516;0.18;-0.266;-0.153;0.06;-0.233;5.0;-0.8;30.8;51.48;5609;2018-04-16 23:01:55:877
-2.526;-9.019;1.057;-2.484;-9.466;0.63;-0.042;0.447;0.427;-0.097;-0.011;-0.192;5.0;-0.8;30.8;51.48;5619;2018-04-16 23:01:55:887
-2.526;-9.019;1.057;-2.484;-9.466;0.63;-0.042;0.447;0.427;-0.001;0.127;-0.188;5.0;-0.7;30.7;51.48;5630;2018-04-16 23:01:55:898
-3.118;-9.355;1.462;-2.455;-9.473;0.632;-0.663;0.118;0.83;-0.001;0.127;-0.188;5.0;-0.7;30.7;51.48;5639;2018-04-16 23:01:55:907
-3.163;-9.521;1.308;-2.437;-9.476;0.661;-0.727;-0.073;0.581;0.277;0.408;-0.139;5.0;-0.6;30.7;51.48;5649;2018-04-16 23:01:55:917
-3.182;-9.573;1.156;-2.437;-9.476;0.661;-0.727;-0.073;0.581;0.277;0.479;-0.127;5.1;-0.5;30.6;51.48;5659;2018-04-16 23:01:55:927
-3.182;-9.573;1.156;-2.437;-9.476;0.661;-0.727;-0.073;0.581;0.369;0.479;-0.127;5.1;-0.5;30.6;51.48;5669;2018-04-16 23:01:55:937
-3.139;-9.564;0.758;-2.426;-9.475;0.716;-0.713;-0.089;0.042;0.439;0.512;-0.109;5.0;-0.4;30.6;51.48;5679;2018-04-16 23:01:55:947
-3.139;-9.564;0.758;-2.426;-9.475;0.716;-0.713;-0.089;0.042;0.439;0.512;-0.109;5.0;-0.4;30.6;51.48;5689;2018-04-16 23:01:55:957
-3.181;-9.544;0.147;-2.423;-9.47;0.787;-0.758;-0.074;-0.639;0.525;0.415;-0.065;5.0;-0.3;30.5;51.48;5699;2018-04-16 23:01:55:967
-3.153;-9.468;-0.147;-2.423;-9.47;0.787;-0.758;-0.074;-0.639;0.534;0.297;-0.038;5.0;-0.3;30.5;51.48;5709;2018-04-16 23:01:55:977
-3.153;-9.468;-0.147;-2.427;-9.462;0.869;-0.725;0.0;-1.02;0.53;0.142;-0.012;5.0;-0.1;30.6;51.48;5719;2018-04-16 23:01:55:987
-3.027;-9.364;-0.043;-2.427;-9.462;0.869;-0.725;0.0;-1.02;0.501;-0.027;0.059;5.1;0.0;30.6;51.48;5729;2018-04-16 23:01:55:997
-2.796;-9.274;0.061;-2.443;-9.449;0.954;-0.353;0.175;-0.893;0.479;-0.05;0.084;5.1;0.0;30.6;51.48;5739;2018-04-16 23:01:56:007
-2.796;-9.274;0.061;-2.443;-9.449;0.954;-0.353;0.175;-0.893;0.479;-0.05;0.084;5.1;0.0;30.6;51.48;5749;2018-04-16 23:01:56:017
-2.334;-9.268;0.181;-2.473;-9.435;1.022;0.139;0.167;-0.841;0.396;-0.023;0.159;5.1;0.2;30.6;51.48;5759;2018-04-16 23:01:56:027
-2.334;-9.268;0.181;-2.473;-9.435;1.022;0.139;0.167;-0.841;0.396;-0.023;0.159;5.1;0.2;30.6;51.48;5768;2018-04-16 23:01:56:036
-1.723;-9.449;0.135;-2.51;-9.419;1.074;0.787;-0.03;-0.939;0.342;0.054;0.231;5.2;0.7;30.4;51.48;5779;2018-04-16 23:01:56:047
-1.723;-9.449;0.135;-2.51;-9.419;1.074;0.787;-0.03;-0.939;0.434;-0.012;0.227;5.2;0.7;30.4;51.48;5789;2018-04-16 23:01:56:057
-1.274;-9.726;0.128;-2.542;-9.402;1.143;1.269;-0.324;-1.014;0.459;-0.035;0.211;5.3;1.0;30.4;51.48;5799;2018-04-16 23:01:56:067
-0.966;-9.861;0.127;-2.542;-9.402;1.143;1.269;-0.324;-1.014;0.457;-0.043;0.198;5.3;1.0;30.4;51.48;5809;2018-04-16 23:01:56:077
-0.966;-9.861;0.127;-2.563;-9.387;1.219;1.674;-0.508;-1.065;0.431;-0.037;0.182;5.3;1.4;30.4;51.48;5819;2018-04-16 23:01:56:087
-0.786;-9.979;0.196;-2.563;-9.387;1.219;1.674;-0.508;-1.065;0.392;-0.026;0.159;5.3;1.4;30.4;51.48;5829;2018-04-16 23:01:56:097
-0.801;-9.861;0.294;-2.578;-9.374;1.286;1.823;-0.586;-1.037;0.378;-0.013;0.126;5.2;1.7;30.5;51.48;5839;2018-04-16 23:01:56:107
-1.205;-9.798;0.352;-2.583;-9.364;1.351;1.377;-0.435;-0.999;0.402;-0.006;0.083;5.2;1.7;30.5;51.48;5849;2018-04-16 23:01:56:117
-1.205;-9.798;0.352;-2.583;-9.364;1.351;1.377;-0.435;-0.999;0.402;-0.006;0.083;5.2;1.9;30.3;51.48;5859;2018-04-16 23:01:56:127
-1.907;-10.088;0.378;-2.583;-9.364;1.351;1.377;-0.435;-0.999;0.434;0.029;0.043;5.2;1.9;30.3;51.48;5869;2018-04-16 23:01:56:137
-1.907;-10.088;0.378;-2.587;-9.351;1.424;0.579;-0.835;-1.076;0.45;0.094;0.031;5.1;2.1;30.3;51.48;5880;2018-04-16 23:01:56:148
-2.154;-10.405;0.333;-2.587;-9.351;1.424;0.579;-0.835;-1.076;0.411;0.268;0.002;5.1;2.1;30.3;51.48;5889;2018-04-16 23:01:56:157
-2.228;-10.534;0.229;-2.595;-9.34;1.485;0.359;-1.179;-1.212;0.356;0.408;-0.017;5.0;2.3;30.3;51.48;5898;2018-04-16 23:01:56:166
-2.228;-10.534;0.229;-2.595;-9.34;1.485;0.359;-1.179;-1.212;0.303;0.509;-0.034;5.0;2.3;30.3;51.48;5909;2018-04-16 23:01:56:177
-2.118;-10.564;0.0;-2.604;-9.332;1.515;0.486;-1.232;-1.515;0.253;0.496;-0.043;4.9;2.6;30.2;51.39;5921;2018-04-16 23:01:56:189
-1.723;-10.544;-0.299;-2.604;-9.332;1.515;0.486;-1.232;-1.515;0.253;0.496;-0.043;4.9;2.6;30.2;51.39;5929;2018-04-16 23:01:56:197
-1.723;-10.544;-0.299;-2.607;-9.328;1.534;0.987;-1.254;-1.917;0.214;0.4;-0.054;4.9;2.9;30.2;51.39;5939;2018-04-16 23:01:56:207
-1.433;-10.764;-0.441;-2.607;-9.328;1.534;0.987;-1.254;-1.917;0.077;0.18;-0.082;4.9;2.9;30.2;51.39;5948;2018-04-16 23:01:56:216
-1.117;-11.016;-0.347;-2.597;-9.331;1.537;1.401;-1.583;-1.96;-0.078;0.037;-0.11;4.8;3.2;30.3;51.39;5959;2018-04-16 23:01:56:227
-1.117;-11.016;-0.347;-2.597;-9.331;1.537;1.401;-1.583;-1.96;-0.263;-0.072;-0.145;4.8;3.2;30.3;51.39;5969;2018-04-16 23:01:56:237
-1.203;-11.092;-0.026;-2.567;-9.347;1.49;1.364;-1.746;-1.516;-0.426;-0.144;-0.172;4.7;3.5;30.3;51.39;5979;2018-04-16 23:01:56:247
-1.548;-10.852;0.438;-2.567;-9.347;1.49;1.364;-1.746;-1.516;-0.535;-0.184;-0.187;4.7;3.5;30.3;51.39;5989;2018-04-16 23:01:56:257
-2.185;-10.367;0.676;-2.526;-9.372;1.399;0.826;-1.379;-0.862;-0.578;-0.18;-0.204;4.7;3.8;30.3;51.39;5999;2018-04-16 23:01:56:267
-2.185;-10.367;0.676;-2.526;-9.372;1.399;0.826;-1.379;-0.862;-0.578;-0.18;-0.204;4.7;3.8;30.3;51.39;6008;2018-04-16 23:01:56:276
-3.425;-9.416;0.333;-2.48;-9.399;1.295;-0.164;-0.585;-0.686;-0.58;0.083;-0.288;4.7;4.1;30.1;51.39;6024;2018-04-16 23:01:56:292
-3.425;-9.416;0.333;-2.48;-9.399;1.295;-0.164;-0.585;-0.686;-0.58;0.083;-0.288;4.7;4.1;30.1;51.39;6029;2018-04-16 23:01:56:297
-3.762;-9.131;0.057;-2.435;-9.427;1.174;-1.115;0.128;-0.926;-0.624;0.308;-0.285;4.6;4.2;30.1;51.39;6039;2018-04-16 23:01:56:307
-3.762;-9.131;0.057;-2.435;-9.427;1.174;-1.115;0.128;-0.926;-0.624;0.308;-0.285;4.6;4.2;30.1;51.39;6049;2018-04-16 23:01:56:317
-4.185;-8.975;-0.364;-2.406;-9.452;1.017;-1.779;0.478;-1.381;-0.701;0.48;-0.28;4.5;4.3;30.1;51.39;6059;2018-04-16 23:01:56:327
-4.568;-9.097;-0.384;-2.406;-9.452;1.017;-1.779;0.478;-1.381;-1.038;0.881;-0.202;4.5;4.3;30.1;51.39;6069;2018-04-16 23:01:56:337
-4.525;-9.176;-0.049;-2.391;-9.478;0.79;-2.158;0.344;-1.014;-1.038;0.881;-0.202;4.4;4.4;30.1;51.39;6079;2018-04-16 23:01:56:347
-4.525;-9.176;-0.049;-2.391;-9.478;0.79;-2.158;0.344;-1.014;-1.038;0.881;-0.202;4.4;4.4;30.1;51.39;6089;2018-04-16 23:01:56:357
-4.536;-9.439;0.5;-2.399;-9.497;0.467;-2.137;0.058;0.033;-1.46;1.273;-0.056;4.3;4.5;30.0;51.39;6099;2018-04-16 23:01:56:367
-4.424;-9.645;0.532;-2.399;-9.497;0.467;-2.137;0.058;0.033;-1.489;1.178;0.033;4.3;4.5;30.0;51.39;6109;2018-04-16 23:01:56:377
-4.398;-9.661;0.589;-2.414;-9.504;0.13;-1.984;-0.157;0.459;-1.476;1.073;0.055;4.1;4.4;29.9;51.39;6119;2018-04-16 23:01:56:387
-4.398;-9.661;0.589;-2.414;-9.504;0.13;-1.984;-0.157;0.459;-1.476;1.073;0.055;4.1;4.4;29.9;51.39;6129;2018-04-16 23:01:56:397
-4.123;-9.582;1.701;-2.443;-9.496;-0.172;-1.679;-0.086;1.873;-1.4;0.645;0.161;3.8;4.3;30.0;51.39;6139;2018-04-16 23:01:56:407
-4.276;-9.778;2.664;-2.443;-9.496;-0.172;-1.679;-0.086;1.873;-1.371;0.589;0.211;3.8;4.3;30.0;51.39;6149;2018-04-16 23:01:56:417
-4.276;-9.778;2.664;-2.481;-9.476;-0.461;-1.876;-0.347;3.425;-1.34;0.742;0.26;3.6;4.2;30.1;51.39;6158;2018-04-16 23:01:56:426
-4.272;-9.911;3.011;-2.481;-9.476;-0.461;-1.876;-0.347;3.425;-1.297;1.01;0.285;3.6;4.2;30.1;51.39;6169;2018-04-16 23:01:56:437
-3.979;-9.784;2.488;-2.522;-9.447;-0.757;-1.457;-0.337;3.244;-1.242;1.235;0.274;3.3;3.9;30.0;51.39;6179;2018-04-16 23:01:56:447
-3.461;-9.506;1.213;-2.522;-9.447;-0.757;-1.457;-0.337;3.244;-1.242;1.235;0.274;3.3;3.9;30.0;51.39;6189;2018-04-16 23:01:56:457
-3.415;-9.561;0.839;-2.546;-9.414;-1.034;-0.922;-0.113;2.088;-1.119;1.366;0.204;3.0;3.7;29.9;51.39;6199;2018-04-16 23:01:56:467
-3.415;-9.561;0.839;-2.546;-9.414;-1.034;-0.922;-0.113;2.088;-0.947;1.404;0.176;3.0;3.7;29.9;51.39;6209;2018-04-16 23:01:56:477
-3.334;-9.676;0.328;-2.55;-9.384;-1.268;-0.676;-0.207;1.754;-0.823;1.473;0.142;2.6;3.3;30.0;51.39;6218;2018-04-16 23:01:56:486
-3.334;-9.676;0.328;-2.55;-9.384;-1.268;-0.676;-0.207;1.754;-0.699;1.6;0.122;2.6;3.3;30.0;51.39;6229;2018-04-16 23:01:56:497
-3.347;-9.997;-1.243;-2.532;-9.358;-1.477;-0.815;-0.639;0.234;-0.517;1.658;0.132;1.6;2.1;30.0;51.57;6239;2018-04-16 23:01:56:507
-2.747;-9.959;-2.655;-2.532;-9.358;-1.477;-0.815;-0.639;0.234;-0.517;1.658;0.132;1.3;1.6;29.7;51.57;6249;2018-04-16 23:01:56:517
-2.29;-9.652;-2.237;-2.501;-9.338;-1.647;-0.065;-0.513;-0.999;-0.411;1.654;0.097;0.6;1.3;29.8;51.57;6259;2018-04-16 23:01:56:527
-2.29;-9.652;-2.237;-2.501;-9.338;-1.647;-0.065;-0.513;-0.999;-0.235;1.776;-0.043;0.6;1.3;29.8;51.57;6269;2018-04-16 23:01:56:537
-1.735;-9.232;-0.885;-2.425;-9.334;-1.776;0.691;0.102;0.892;-0.235;1.776;-0.043;-0.1;0.7;30.4;51.57;6279;2018-04-16 23:01:56:547
-1.258;-9.183;-0.376;-2.425;-9.334;-1.776;0.691;0.102;0.892;-0.01;2.176;-0.326;-0.1;0.7;28.6;51.57;6290;2018-04-16 23:01:56:558
-1.258;-9.183;-0.376;-2.26;-9.36;-1.857;1.062;0.194;1.346;0.065;2.228;-0.432;-1.1;-0.3;28.6;51.57;6299;2018-04-16 23:01:56:567
-1.702;-8.966;-0.715;-2.26;-9.36;-1.857;1.062;0.194;1.346;0.312;2.033;-0.656;-2.4;0.0;29.8;51.57;6308;2018-04-16 23:01:56:576
-2.37;-9.171;-2.03;-2.06;-9.405;-1.865;0.225;0.469;0.72;0.316;1.438;-0.668;-2.4;0.0;29.8;51.57;6319;2018-04-16 23:01:56:587
-2.37;-9.171;-2.03;-2.06;-9.405;-1.865;0.225;0.469;0.72;0.011;0.816;-0.555;-3.3;-0.3;28.5;51.57;6329;2018-04-16 23:01:56:597
-2.447;-9.145;-1.733;-1.91;-9.433;-1.881;-0.537;0.288;0.148;0.011;0.816;-0.555;-3.3;-0.3;28.5;51.57;6338;2018-04-16 23:01:56:606
-1.703;-8.867;-1.549;-1.91;-9.433;-1.881;-0.537;0.288;0.148;-0.239;-0.114;-0.396;-3.6;-0.5;29.8;51.57;6349;2018-04-16 23:01:56:617
-1.703;-8.867;-1.549;-1.863;-9.431;-1.936;0.16;0.564;0.387;-0.513;-0.721;-0.287;-3.6;-0.5;29.8;51.57;6358;2018-04-16 23:01:56:626
-1.488;-8.707;-0.241;-1.863;-9.431;-1.936;0.16;0.564;0.387;-1.184;-0.539;-0.171;-3.4;-0.7;29.8;51.57;6368;2018-04-16 23:01:56:636
-2.137;-8.704;-0.151;-1.85;-9.391;-2.135;0.082;0.666;2.286;-1.333;-0.031;-0.184;-3.4;-0.7;29.8;51.57;6378;2018-04-16 23:01:56:646
-2.137;-8.704;-0.151;-1.85;-9.391;-2.135;0.082;0.666;2.286;-1.367;0.347;-0.192;-3.9;-1.6;29.1;51.57;6389;2018-04-16 23:01:56:657
-2.851;-8.326;-1.422;-1.801;-9.336;-2.4;-1.05;1.011;0.978;-1.177;0.34;-0.208;-3.9;-1.6;29.1;51.57;6398;2018-04-16 23:01:56:666
-3.333;-7.84;-1.702;-1.801;-9.336;-2.4;-1.05;1.011;0.978;-1.177;0.34;-0.208;-3.9;-1.8;29.5;51.57;6409;2018-04-16 23:01:56:677
-3.396;-7.433;-1.463;-1.753;-9.293;-2.595;-1.614;1.61;0.963;-0.9;0.068;-0.231;-4.1;-1.7;29.4;51.57;6419;2018-04-16 23:01:56:687
-3.396;-7.433;-1.463;-1.753;-9.293;-2.595;-1.614;1.61;0.963;-0.52;-0.112;-0.247;-4.1;-1.7;29.4;51.57;6429;2018-04-16 23:01:56:697
-3.05;-6.756;-0.801;-1.712;-9.275;-2.687;-1.338;2.518;1.886;-0.334;-0.073;-0.254;-4.1;-1.7;29.4;51.57;6439;2018-04-16 23:01:56:707
-2.589;-6.121;-0.294;-1.712;-9.275;-2.687;-1.338;2.518;1.886;-0.178;0.013;-0.259;-4.1;-1.7;29.4;51.57;6449;2018-04-16 23:01:56:717
-2.589;-6.121;-0.294;-1.664;-9.274;-2.719;-0.805;3.255;2.417;-0.04;0.081;-0.242;-4.3;-1.9;29.3;51.57;6458;2018-04-16 23:01:56:726
-2.143;-5.938;-0.469;-1.664;-9.274;-2.719;-0.805;3.255;2.417;0.095;0.057;-0.184;-4.5;-2.0;29.3;51.57;6469;2018-04-16 23:01:56:737
-2.143;-5.938;-0.469;-1.628;-9.285;-2.701;-0.123;3.25;2.15;0.095;0.057;-0.184;-4.5;-2.0;29.3;51.57;6479;2018-04-16 23:01:56:747
-1.35;-6.266;-0.651;-1.628;-9.285;-2.701;-0.123;3.25;2.15;0.309;-0.05;-0.05;-4.9;-2.2;29.3;51.57;6490;2018-04-16 23:01:56:758
-0.99;-6.553;-0.757;-1.634;-9.306;-2.627;0.644;2.753;1.87;0.45;-0.104;0.059;-5.1;-2.3;29.3;51.57;6499;2018-04-16 23:01:56:767
-0.99;-6.553;-0.757;-1.634;-9.306;-2.627;0.644;2.753;1.87;0.652;-0.217;0.227;-5.1;-2.3;29.3;51.57;6509;2018-04-16 23:01:56:777
-0.735;-6.966;-1.168;-1.689;-9.331;-2.498;0.954;2.365;1.33;0.652;-0.217;0.227;-5.5;-2.5;29.2;51.57;6519;2018-04-16 23:01:56:787
-0.893;-7.441;-1.78;-1.689;-9.331;-2.498;0.954;2.365;1.33;0.788;-0.396;0.408;-5.5;-2.5;29.2;51.57;6529;2018-04-16 23:01:56:797
-0.983;-7.563;-1.975;-1.802;-9.354;-2.331;0.819;1.79;0.356;0.817;-0.572;0.531;-5.5;-2.5;29.2;51.57;6540;2018-04-16 23:01:56:808
-0.983;-7.563;-1.975;-1.802;-9.354;-2.331;0.819;1.79;0.356;0.817;-0.572;0.531;-5.8;-2.6;29.1;51.57;6549;2018-04-16 23:01:56:817
-1.612;-9.182;-2.737;-1.802;-9.354;-2.331;0.819;1.79;0.356;0.667;-1.076;0.783;-5.8;-2.6;29.1;51.57;6559;2018-04-16 23:01:56:827
-1.612;-9.182;-2.737;-2.079;-9.351;-2.099;0.396;-0.196;-0.822;0.406;-1.359;0.931;-6.2;-2.6;29.0;51.57;6569;2018-04-16 23:01:56:837
-1.399;-10.045;-3.531;-2.312;-9.316;-2.007;1.431;-1.35;-0.822;-0.017;-1.481;0.907;-6.2;-2.6;29.0;54.0;6579;2018-04-16 23:01:56:847
-0.571;-11.019;-5.376;-2.312;-9.316;-2.007;1.431;-1.35;-2.557;-0.017;-1.481;0.907;-6.3;-2.5;29.0;54.0;6589;2018-04-16 23:01:56:857
0.124;-11.578;-6.816;-2.422;-9.288;-2.008;2.183;-1.938;-3.928;-0.4;-1.56;0.729;-6.2;-2.5;29.0;54.0;6599;2018-04-16 23:01:56:867
0.124;-11.578;-6.816;-2.422;-9.288;-2.008;2.183;-1.938;-3.928;-0.4;-1.56;0.729;-6.2;-2.5;29.0;54.0;6609;2018-04-16 23:01:56:877
0.493;-12.207;-7.96;-2.554;-9.234;-2.094;3.047;-2.973;-5.866;-1.12;-2.012;0.173;-6.1;-2.5;29.1;54.0;6619;2018-04-16 23:01:56:887
0.733;-12.05;-8.058;-2.554;-9.234;-2.094;3.047;-2.973;-5.866;-1.232;-2.257;-0.061;-5.9;-2.5;29.2;54.0;6629;2018-04-16 23:01:56:897
0.733;-12.05;-8.058;-2.645;-9.181;-2.208;3.368;-2.623;-5.374;-1.232;-2.257;-0.061;-5.9;-2.5;29.2;54.0;6639;2018-04-16 23:01:56:907
0.215;-11.223;-6.134;-2.645;-9.181;-2.208;3.368;-2.623;-5.374;-0.849;-1.571;-0.285;-5.6;-2.6;29.3;54.0;6649;2018-04-16 23:01:56:917
-0.637;-10.495;-4.499;-2.621;-9.175;-2.264;1.984;-1.32;-2.235;-0.42;-0.698;-0.489;-5.5;-2.7;29.2;54.0;6660;2018-04-16 23:01:56:928
-0.637;-10.495;-4.499;-2.621;-9.175;-2.264;1.984;-1.32;-2.235;0.269;0.596;-0.665;-5.5;-2.7;29.2;54.0;6669;2018-04-16 23:01:56:937
-2.636;-9.301;-4.119;-2.473;-9.22;-2.247;-0.163;-0.082;-1.873;0.568;1.008;-0.671;-5.1;-2.7;29.3;54.0;6679;2018-04-16 23:01:56:947
-2.636;-9.301;-4.119;-2.473;-9.22;-2.247;-0.163;-0.082;-1.873;0.568;1.008;-0.671;-5.1;-2.7;29.3;54.0;6688;2018-04-16 23:01:56:956
-4.617;-9.181;-3.312;-2.31;-9.283;-2.161;-2.307;0.102;-1.152;0.843;0.855;-0.599;-4.8;-2.7;29.3;54.0;6699;2018-04-16 23:01:56:967
-6.512;-9.199;-3.662;-2.31;-9.283;-2.161;-2.307;0.102;-1.152;0.833;0.481;-0.459;-4.8;-2.7;29.3;54.0;6709;2018-04-16 23:01:56:977
-6.512;-9.242;-3.518;-2.211;-9.335;-2.032;-4.806;0.147;-1.78;0.389;-0.527;-0.149;-4.5;-2.6;29.4;54.0;6719;2018-04-16 23:01:56:987
-7.415;-9.242;-3.518;-2.211;-9.335;-2.032;-4.806;0.147;-1.78;0.389;-0.527;-0.149;-4.5;-2.6;29.4;54.0;6729;2018-04-16 23:01:56:997
-7.415;-9.242;-3.518;-2.23;-9.346;-1.962;-5.085;-0.227;-1.107;-0.004;-1.098;-0.026;-4.2;-2.4;29.3;54.0;6739;2018-04-16 23:01:57:007
-5.283;-10.083;-2.089;-2.259;-9.34;-1.957;-3.023;-0.743;-0.132;-0.285;-1.443;0.038;-4.1;-2.3;29.4;54.0;6750;2018-04-16 23:01:57:018
-5.283;-10.083;-2.089;-2.259;-9.34;-1.957;-3.023;-0.743;-0.132;-0.285;-1.443;0.038;-4.1;-2.3;29.4;54.0;6759;2018-04-16 23:01:57:027
-1.797;-11.095;-1.68;-2.284;-9.336;-1.948;0.488;-1.759;0.269;-0.271;-1.472;-0.061;-3.9;-2.2;29.4;54.0;6769;2018-04-16 23:01:57:037
1.861;-12.507;0.444;-2.123;-9.369;-1.973;3.984;-3.139;2.417;-0.156;0.279;-0.806;-3.9;-2.2;29.4;54.0;6779;2018-04-16 23:01:57:047
1.861;-12.507;0.444;-2.123;-9.369;-1.973;3.984;-3.139;2.417;-0.033;0.737;-0.811;-3.4;-2.0;29.5;54.0;6789;2018-04-16 23:01:57:057
-0.023;-6.334;2.332;-2.123;-9.369;-1.973;3.984;-3.139;2.417;0.109;0.69;-0.552;-3.4;-2.0;29.5;54.0;6799;2018-04-16 23:01:57:067
-0.023;-6.334;2.332;-1.986;-9.396;-1.984;1.453;3.917;4.594;0.109;0.69;-0.552;-3.0;-1.9;29.5;54.0;6808;2018-04-16 23:01:57:076
-2.252;-4.537;3.011;-1.899;-9.41;-2.003;-1.829;4.587;4.516;0.034;0.343;-0.396;-3.0;-1.9;29.5;54.0;6819;2018-04-16 23:01:57:087
-4.6;-5.397;1.724;-1.899;-9.41;-2.003;-1.829;4.587;4.516;-0.143;0.584;-0.375;-2.7;-1.8;29.4;54.0;6829;2018-04-16 23:01:57:097
-4.6;-5.397;1.724;-1.899;-9.41;-2.003;-1.829;4.587;4.516;-0.14;0.834;-0.374;-2.7;-1.8;29.4;54.0;6839;2018-04-16 23:01:57:107
-6.428;-7.433;-0.766;-1.821;-9.415;-2.05;-4.607;1.983;1.284;-0.048;0.856;-0.297;-2.5;-1.6;29.5;54.0;6849;2018-04-16 23:01:57:117
-7.059;-8.793;-2.409;-1.782;-9.42;-2.064;-5.278;0.627;-0.345;0.078;0.574;-0.138;-2.5;-1.6;29.5;54.0;6859;2018-04-16 23:01:57:127
-7.282;-10.537;-0.534;-1.782;-9.42;-2.064;-5.278;0.627;-0.345;0.237;0.108;0.062;-2.3;-1.5;29.5;54.0;6868;2018-04-16 23:01:57:136
-6.794;-10.995;1.243;-1.792;-9.427;-2.02;-5.405;-1.311;2.094;0.538;-0.182;0.396;-2.3;-1.5;29.5;54.0;6878;2018-04-16 23:01:57:146
-6.794;-10.995;1.243;-1.792;-9.427;-2.02;-5.405;-1.311;2.094;0.663;-0.051;0.533;-2.1;-1.5;29.5;54.0;6889;2018-04-16 23:01:57:157
-5.972;-10.726;1.72;-1.886;-9.434;-1.901;-4.087;-1.292;3.622;0.694;0.23;0.58;-2.1;-1.5;29.5;56.44;6898;2018-04-16 23:01:57:166
-5.094;-9.856;1.634;-1.886;-9.434;-1.901;-4.087;-1.292;3.622;0.657;0.528;0.59;-2.1;-1.4;29.5;56.44;6910;2018-04-16 23:01:57:178
-5.094;-9.856;1.634;-1.982;-9.436;-1.789;-2.964;-0.203;3.18;0.657;0.528;0.59;-2.1;-1.3;29.4;56.44;6919;2018-04-16 23:01:57:187
-4.178;-8.841;0.741;-1.982;-9.436;-1.789;-2.964;-0.203;3.18;0.657;0.528;0.59;-2.1;-1.3;29.4;56.44;6929;2018-04-16 23:01:57:197
-4.178;-8.841;0.741;-2.105;-9.425;-1.707;-1.822;0.842;2.223;0.492;0.787;0.751;-2.1;-1.2;29.4;56.44;6939;2018-04-16 23:01:57:207
-3.522;-8.133;0.171;-2.105;-9.425;-1.707;-1.822;0.842;2.223;0.42;0.476;0.865;-2.1;-1.2;29.4;56.44;6949;2018-04-16 23:01:57:217
-2.914;-8.066;-0.377;-2.254;-9.401;-1.646;-0.916;1.458;1.554;0.43;-0.073;0.936;-2.2;-1.0;29.3;56.44;6959;2018-04-16 23:01:57:227
-2.914;-8.066;-0.377;-2.254;-9.401;-1.646;-0.916;1.458;1.554;0.43;-0.073;0.936;-2.2;-1.0;29.3;56.44;6969;2018-04-16 23:01:57:237
-2.419;-8.44;-0.463;-2.439;-9.373;-1.537;0.019;0.934;1.074;0.541;-0.551;0.921;-2.4;-0.7;29.3;56.44;6979;2018-04-16 23:01:57:247
-2.752;-9.747;0.042;-2.439;-9.373;-1.537;0.019;0.934;1.074;0.59;-0.867;0.844;-2.5;-0.6;29.2;56.44;6989;2018-04-16 23:01:57:257
-2.752;-9.747;0.042;-2.622;-9.35;-1.369;-0.093;-0.653;1.422;0.574;-1.015;0.799;-2.5;-0.6;29.2;56.44;6999;2018-04-16 23:01:57:267
-2.545;-10.567;0.043;-2.622;-9.35;-1.369;-0.093;-0.653;1.422;0.553;-1.175;0.76;-2.6;-0.4;29.2;56.44;7009;2018-04-16 23:01:57:277
-2.377;-11.271;0.189;-2.792;-9.324;-1.201;0.414;-1.947;1.39;0.666;-1.324;0.706;-2.6;-0.4;29.2;56.44;7021;2018-04-16 23:01:57:289
-2.377;-11.271;0.189;-2.792;-9.324;-1.201;0.414;-1.947;1.39;0.666;-1.324;0.706;-2.6;-0.2;29.2;56.44;7029;2018-04-16 23:01:57:297
-1.016;-11.607;0.417;-2.941;-9.302;-0.993;1.925;-2.305;1.409;0.793;-1.246;0.561;-2.6;-0.1;29.1;56.44;7038;2018-04-16 23:01:57:306
0.124;-10.768;0.464;-2.941;-9.302;-0.993;1.925;-2.305;1.409;0.793;-1.246;0.561;-2.6;-0.1;29.1;56.44;7049;2018-04-16 23:01:57:317
0.124;-10.768;0.464;-3.035;-9.292;-0.78;3.095;-1.149;1.275;0.814;-0.878;0.371;-2.6;0.2;29.1;56.44;7059;2018-04-16 23:01:57:327
-0.005;-10.019;0.423;-3.035;-9.292;-0.78;3.095;-1.149;1.275;0.793;-0.296;0.202;-2.6;0.2;29.1;56.44;7069;2018-04-16 23:01:57:337
0.01;-9.784;0.211;-3.05;-9.3;-0.606;3.06;-0.483;0.817;0.793;-0.296;0.202;-2.6;0.5;29.0;56.44;7079;2018-04-16 23:01:57:347
-0.181;-9.345;-0.12;-3.05;-9.3;-0.606;3.06;-0.483;0.817;0.81;0.114;0.05;-2.6;0.5;29.0;56.44;7088;2018-04-16 23:01:57:356
-0.181;-9.345;-0.12;-3.024;-9.317;-0.463;2.732;0.043;0.393;0.822;0.189;-0.078;-2.6;0.8;28.9;56.44;7099;2018-04-16 23:01:57:367
-0.328;-9.094;-0.028;-3.024;-9.317;-0.463;2.732;0.043;0.393;0.841;0.088;-0.232;-2.6;0.8;28.9;56.44;7109;2018-04-16 23:01:57:377
-1.069;-9.313;-0.372;-2.969;-9.341;-0.311;1.9;0.028;-0.061;0.841;0.088;-0.232;-2.6;1.2;28.8;56.44;7119;2018-04-16 23:01:57:387
-1.446;-9.179;-0.676;-2.944;-9.351;-0.237;1.497;0.172;-0.439;0.803;-0.275;-0.249;-2.6;1.2;28.8;56.44;7129;2018-04-16 23:01:57:397
-1.676;-8.762;-0.812;-2.926;-9.359;-0.143;1.25;0.597;-0.669;0.733;-0.655;-0.176;-2.5;1.6;28.9;56.44;7139;2018-04-16 23:01:57:407
-1.676;-8.762;-0.812;-2.926;-9.359;-0.143;1.25;0.597;-0.669;0.733;-0.655;-0.176;-2.5;1.6;28.9;56.44;7149;2018-04-16 23:01:57:417
-1.81;-8.564;-0.509;-2.907;-9.366;0.037;1.097;0.802;-0.545;0.553;-1.285;-0.088;-2.3;2.0;29.0;56.44;7159;2018-04-16 23:01:57:427
-1.864;-8.565;-0.206;-2.907;-9.366;0.037;1.097;0.802;-0.545;0.343;-1.378;-0.09;-2.3;2.0;29.0;56.44;7169;2018-04-16 23:01:57:437
-2.136;-8.715;0.271;-2.886;-9.37;0.19;0.918;0.744;-0.276;0.226;-1.278;-0.087;-2.1;2.4;29.0;56.44;7181;2018-04-16 23:01:57:449
-2.136;-8.715;0.271;-2.886;-9.37;0.19;0.918;0.744;-0.276;0.139;-1.134;-0.09;-2.0;2.7;29.0;56.44;7189;2018-04-16 23:01:57:457
-2.489;-8.873;0.626;-2.862;-9.375;0.295;0.373;0.502;0.331;0.139;-1.134;-0.09;-2.0;2.7;29.0;56.44;7199;2018-04-16 23:01:57:467
-2.862;-8.958;0.923;-2.862;-9.375;0.295;0.373;0.502;0.331;0.12;-0.904;-0.106;-1.7;3.1;28.9;56.44;7209;2018-04-16 23:01:57:477
-2.862;-8.958;0.923;-2.835;-9.381;0.374;-0.142;0.364;0.608;0.213;-0.655;-0.139;-1.7;3.1;28.9;54.45;7219;2018-04-16 23:01:57:487
-3.175;-9.092;1.019;-2.835;-9.381;0.374;-0.142;0.364;0.608;0.301;-0.44;-0.158;-1.4;3.6;28.7;54.45;7229;2018-04-16 23:01:57:497
-3.486;-9.116;0.854;-2.806;-9.385;0.462;-0.592;0.276;0.497;0.407;-0.209;-0.159;-1.4;3.6;28.7;54.45;7239;2018-04-16 23:01:57:507
-3.486;-9.116;0.854;-2.806;-9.385;0.462;-0.592;0.276;0.497;0.481;0.015;-0.137;-1.1;4.0;28.7;54.45;7248;2018-04-16 23:01:57:516
-3.428;-9.152;0.46;-2.788;-9.386;0.552;-0.64;0.234;-0.092;0.506;0.224;-0.083;-1.1;4.0;28.7;54.45;7259;2018-04-16 23:01:57:527
-3.09;-9.092;0.159;-2.788;-9.386;0.552;-0.64;0.234;-0.092;0.506;0.224;-0.083;-0.7;4.4;28.7;54.45;7268;2018-04-16 23:01:57:536
-2.834;-9.228;0.151;-2.782;-9.382;0.63;-0.2;0.286;-0.494;0.502;0.244;-0.053;-0.7;4.4;28.7;54.45;7279;2018-04-16 23:01:57:547
-2.599;-9.322;0.12;-2.783;-9.377;0.707;0.185;0.055;-0.588;0.498;0.17;-0.006;-0.4;4.9;28.7;54.45;7290;2018-04-16 23:01:57:558
-2.599;-9.322;0.12;-2.783;-9.377;0.707;0.185;0.055;-0.588;0.498;0.17;-0.006;-0.4;4.9;28.7;54.45;7299;2018-04-16 23:01:57:567
-2.599;-9.322;0.12;-2.783;-9.377;0.707;0.185;0.055;-0.588;0.443;0.064;0.029;-0.1;5.3;28.6;54.45;7309;2018-04-16 23:01:57:577
-2.546;-9.443;0.083;-2.79;-9.369;0.776;0.244;-0.073;-0.693;0.357;-0.035;0.071;0.0;5.5;28.6;54.45;7319;2018-04-16 23:01:57:587
-2.637;-9.432;0.299;-2.79;-9.369;0.776;0.244;-0.073;-0.693;0.357;-0.035;0.071;0.0;5.5;28.6;54.45;7329;2018-04-16 23:01:57:597
-2.637;-9.432;0.299;-2.803;-9.36;0.84;0.123;-0.067;-0.435;0.335;-0.151;0.093;0.1;5.9;28.6;54.45;7339;2018-04-16 23:01:57:607
-2.811;-9.548;0.688;-2.803;-9.36;0.84;0.123;-0.067;-0.435;0.441;-0.239;0.084;0.1;5.9;28.6;54.45;7349;2018-04-16 23:01:57:617
-2.811;-9.548;0.688;-2.815;-9.347;0.937;-0.044;-0.324;-0.056;0.441;-0.239;0.084;0.2;6.2;28.5;54.45;7359;2018-04-16 23:01:57:627
-2.865;-9.78;0.849;-2.821;-9.339;1.001;-0.044;-0.442;-0.152;0.678;-0.275;0.094;0.3;6.4;28.5;54.45;7369;2018-04-16 23:01:57:637
-2.865;-9.78;0.849;-2.821;-9.339;1.001;-0.044;-0.442;-0.152;0.678;-0.275;0.094;0.3;6.4;28.5;54.45;7379;2018-04-16 23:01:57:647
-2.807;-10.229;0.566;-2.828;-9.313;1.2;0.02;-0.916;-0.634;1.08;-0.343;0.078;0.5;6.8;28.5;54.45;7389;2018-04-16 23:01:57:657
-1.966;-9.934;0.141;-2.836;-9.279;1.422;1.12;-0.443;-1.375;1.172;-0.299;0.109;0.6;7.0;28.5;54.45;7401;2018-04-16 23:01:57:669
-1.966;-9.934;0.141;-2.836;-9.279;1.422;1.12;-0.443;-1.375;1.085;-0.151;0.117;0.6;7.0;28.5;54.45;7408;2018-04-16 23:01:57:676
-1.316;-9.054;-0.103;-2.842;-9.261;1.525;1.527;0.207;-1.628;1.037;-0.112;0.106;0.7;7.4;28.4;54.45;7419;2018-04-16 23:01:57:687
-1.316;-9.054;-0.103;-2.842;-9.261;1.525;1.527;0.207;-1.628;0.968;-0.11;0.04;0.7;7.4;28.4;54.45;7429;2018-04-16 23:01:57:697
-0.639;-8.644;-0.381;-2.844;-9.228;1.709;2.205;0.584;-2.089;0.968;-0.11;0.04;0.8;7.7;28.2;54.45;7439;2018-04-16 23:01:57:707
-0.578;-9.043;-0.297;-2.844;-9.228;1.709;2.205;0.584;-2.089;0.861;-0.213;-0.081;0.8;7.7;28.2;54.45;7449;2018-04-16 23:01:57:717
-1.232;-9.517;0.036;-2.805;-9.211;1.861;2.068;-0.003;-2.075;0.739;-0.263;-0.169;0.9;8.1;28.0;54.45;7459;2018-04-16 23:01:57:727
-1.232;-9.517;0.036;-2.805;-9.211;1.861;2.068;-0.003;-2.075;0.54;-0.13;-0.208;0.9;8.1;28.0;54.45;7469;2018-04-16 23:01:57:737
-1.232;-9.517;0.183;-2.749;-9.208;1.957;1.038;-0.364;-1.774;0.516;-0.13;-0.209;0.9;8.1;28.0;54.45;7479;2018-04-16 23:01:57:747
-1.711;-9.572;0.183;-2.749;-9.208;1.957;1.038;-0.364;-1.774;0.516;-0.13;-0.209;1.0;8.5;27.9;54.45;7489;2018-04-16 23:01:57:757
-2.166;-10.116;0.192;-2.711;-9.205;2.021;0.545;-0.91;-1.83;0.492;0.413;-0.269;1.0;8.5;27.9;54.45;7499;2018-04-16 23:01:57:767
-2.166;-10.116;0.192;-2.711;-9.205;2.021;0.545;-0.91;-1.83;0.492;0.413;-0.269;1.0;9.0;27.7;54.45;7509;2018-04-16 23:01:57:777
-1.885;-10.651;0.215;-2.69;-9.209;2.033;0.804;-1.442;-1.818;0.208;0.832;-0.279;1.0;9.0;27.7;54.45;7521;2018-04-16 23:01:57:789
-1.647;-10.748;0.437;-2.69;-9.209;2.033;0.804;-1.442;-1.818;0.029;0.876;-0.288;0.9;9.4;27.6;54.45;7529;2018-04-16 23:01:57:797
-1.262;-11.144;0.389;-2.671;-9.223;1.993;1.085;-1.594;-1.541;-0.004;0.764;-0.282;0.9;9.4;27.6;52.42;7539;2018-04-16 23:01:57:807
-1.262;-11.144;0.389;-2.671;-9.223;1.993;1.085;-1.594;-1.541;-0.004;0.764;-0.282;0.8;9.7;27.5;52.42;7549;2018-04-16 23:01:57:817
-0.982;-11.477;0.408;-2.64;-9.241;1.949;1.659;-2.236;-1.541;-0.106;0.497;-0.294;0.8;9.7;27.5;52.42;7559;2018-04-16 23:01:57:827
-0.91;-11.904;0.7;-2.64;-9.241;1.949;1.659;-2.236;-1.541;-0.296;0.205;-0.352;0.7;10.2;27.3;52.42;7569;2018-04-16 23:01:57:837
-0.885;-11.921;0.751;-2.582;-9.271;1.884;1.698;-2.65;-1.133;-0.349;0.112;-0.368;0.6;10.3;27.2;52.42;7579;2018-04-16 23:01:57:847
-0.751;-11.777;0.828;-2.582;-9.271;1.884;1.698;-2.65;-1.133;-0.476;-0.172;-0.409;0.6;10.3;27.2;52.42;7589;2018-04-16 23:01:57:857
-1.173;-11.265;0.877;-2.498;-9.31;1.803;1.719;-2.368;-0.99;-0.563;-0.465;-0.45;0.5;10.6;27.1;52.42;7599;2018-04-16 23:01:57:867
-1.173;-11.265;0.877;-2.498;-9.31;1.803;1.719;-2.368;-0.99;-0.563;-0.465;-0.45;0.5;10.6;27.1;52.42;7609;2018-04-16 23:01:57:877
-1.961;-10.593;0.929;-2.396;-9.352;1.723;0.435;-1.241;-0.794;-0.59;-0.601;-0.453;0.4;10.9;27.1;52.42;7619;2018-04-16 23:01:57:887
-1.961;-10.593;0.929;-2.396;-9.352;1.723;0.435;-1.241;-0.794;-0.59;-0.601;-0.453;0.4;10.9;27.1;52.42;7629;2018-04-16 23:01:57:897
-3.977;-10.027;-0.509;-2.284;-9.396;1.633;-1.693;-0.631;-2.142;-0.651;-0.66;-0.494;0.3;11.2;26.9;52.42;7639;2018-04-16 23:01:57:907
-3.977;-10.027;-0.509;-2.284;-9.396;1.633;-1.693;-0.631;-2.142;-0.651;-0.66;-0.494;0.3;11.2;26.9;52.42;7649;2018-04-16 23:01:57:917
-5.969;-9.998;-1.019;-2.183;-9.444;1.486;-3.785;-0.554;-2.505;-1.04;-0.527;-0.403;0.2;11.6;26.9;52.42;7659;2018-04-16 23:01:57:927
-5.789;-9.744;1.037;-2.183;-9.444;1.486;-3.785;-0.554;-2.505;-1.633;0.213;-0.236;0.2;11.6;26.9;52.42;7669;2018-04-16 23:01:57:937
-5.833;-9.566;1.559;-2.144;-9.498;1.163;-3.545;-0.135;0.171;-2.134;1.19;-0.193;0.1;11.7;26.8;52.42;7679;2018-04-16 23:01:57:947
-5.833;-9.566;1.559;-2.144;-9.498;1.163;-3.545;-0.135;0.171;-2.134;1.19;-0.193;0.0;11.8;26.8;52.42;7689;2018-04-16 23:01:57:957
-6.191;-9.741;1.695;-2.135;-9.547;0.679;-4.056;-0.194;1.016;-2.314;1.567;-0.177;0.0;11.8;26.8;52.42;7699;2018-04-16 23:01:57:967
-6.191;-9.741;1.695;-2.135;-9.547;0.679;-4.056;-0.194;1.016;-2.318;1.6;-0.073;-0.1;11.9;26.9;52.42;7709;2018-04-16 23:01:57:977
-5.171;-9.664;1.979;-2.135;-9.57;0.171;-3.037;-0.094;1.808;-2.275;1.492;-0.053;-0.1;11.9;26.9;52.42;7721;2018-04-16 23:01:57:989
-5.171;-9.664;1.979;-2.135;-9.57;0.171;-3.037;-0.094;1.808;-2.275;1.492;-0.053;-0.2;11.9;27.0;52.42;7729;2018-04-16 23:01:57:997
-5.241;-9.938;2.85;-2.122;-9.564;-0.448;-3.119;-0.374;3.298;-1.846;0.768;0.015;-0.2;11.9;27.0;52.42;7739;2018-04-16 23:01:58:007
-5.241;-9.938;2.85;-2.122;-9.564;-0.448;-3.119;-0.374;3.298;-1.753;0.696;0.128;-0.6;11.7;27.2;52.42;7748;2018-04-16 23:01:58:016
-5.11;-9.875;3.017;-2.133;-9.55;-0.645;-2.977;-0.325;3.661;-1.699;0.82;0.164;-0.6;11.7;27.2;52.42;7759;2018-04-16 23:01:58:027
-5.11;-10.266;2.89;-2.133;-9.55;-0.645;-2.977;-0.325;3.661;-1.652;1.053;0.165;-1.0;11.5;27.2;52.42;7769;2018-04-16 23:01:58:037
-4.708;-10.136;1.493;-2.149;-9.515;-1.005;-3.266;-0.751;3.894;-1.574;1.361;0.222;-1.4;11.1;27.3;52.42;7790;2018-04-16 23:01:58:058
-4.708;-10.136;1.493;-2.159;-9.468;-1.365;-2.38;-0.598;2.573;-1.574;1.361;0.222;-1.4;11.1;27.3;52.42;7791;2018-04-16 23:01:58:059
-4.708;-10.136;1.493;-2.159;-9.468;-1.365;-2.38;-0.598;2.573;-1.543;1.317;0.225;-1.4;11.1;27.3;52.42;7799;2018-04-16 23:01:58:067
-4.025;-9.889;-0.165;-2.159;-9.468;-1.365;-2.38;-0.598;2.573;-1.543;1.317;0.225;-2.1;10.2;27.5;52.42;7809;2018-04-16 23:01:58:077
-3.217;-10.015;-1.288;-2.182;-9.413;-1.677;-1.035;-0.602;0.389;-1.373;0.915;0.32;-2.1;10.2;27.5;52.42;7819;2018-04-16 23:01:58:087
-3.217;-10.015;-1.288;-2.182;-9.413;-1.677;-1.035;-0.602;0.389;-0.997;0.414;0.31;-3.2;8.7;27.9;52.42;7829;2018-04-16 23:01:58:097
-1.141;-9.035;0.303;-2.218;-9.367;-1.873;1.077;0.333;2.175;-0.448;0.555;0.028;-3.2;8.7;27.9;52.42;7839;2018-04-16 23:01:58:107
-0.012;-9.001;1.911;-2.218;-9.367;-1.873;1.077;0.333;2.175;-0.448;0.555;0.028;-3.9;7.6;28.0;52.42;7848;2018-04-16 23:01:58:116
-0.012;-9.001;1.911;-2.155;-9.369;-1.935;2.118;0.195;3.818;-0.037;1.093;-0.232;-3.9;7.6;28.0;52.42;7858;2018-04-16 23:01:58:126
-0.226;-9.396;1.249;-2.155;-9.369;-1.935;2.118;0.195;3.818;0.215;1.985;-0.398;-4.7;7.2;28.4;52.42;7868;2018-04-16 23:01:58:136
-0.57;-9.572;0.644;-1.959;-9.407;-1.961;1.389;-0.165;2.606;0.298;2.779;-0.511;-4.7;7.2;28.4;52.32;7879;2018-04-16 23:01:58:147
-1.352;-9.394;-0.456;-1.959;-9.407;-1.961;1.389;-0.165;2.606;0.291;3.338;-0.622;-5.7;6.7;28.2;52.32;7888;2018-04-16 23:01:58:156
-1.352;-9.394;-0.456;-1.709;-9.444;-2.013;0.048;0.16;1.297;0.291;3.338;-0.622;-5.7;6.7;28.2;52.32;7898;2018-04-16 23:01:58:166
-2.053;-9.043;-1.21;-1.709;-9.444;-2.013;0.048;0.16;1.297;0.272;2.876;-0.644;-6.8;6.1;27.2;52.32;7909;2018-04-16 23:01:58:177
-2.349;-9.079;-1.275;-1.493;-9.475;-2.041;-0.856;0.396;0.766;0.235;2.249;-0.618;-6.8;6.1;27.2;52.32;7919;2018-04-16 23:01:58:187
-2.715;-8.498;-1.196;-1.493;-9.475;-2.041;-0.856;0.396;0.766;0.117;1.417;-0.502;-8.0;6.2;27.4;52.32;7929;2018-04-16 23:01:58:197
-2.715;-8.498;-1.196;-1.346;-9.493;-2.057;-1.458;1.092;0.618;0.017;0.996;-0.431;-8.0;6.2;27.4;52.32;7939;2018-04-16 23:01:58:207
-3.352;-8.223;-2.665;-1.346;-9.493;-2.057;-1.458;1.092;0.618;-0.217;0.338;-0.352;-8.8;5.9;27.0;52.32;7949;2018-04-16 23:01:58:217
-3.815;-7.902;-2.203;-1.28;-9.491;-2.112;-2.535;1.589;-0.091;-0.491;-0.203;-0.225;-8.8;5.9;27.0;52.32;7959;2018-04-16 23:01:58:227
-3.962;-6.964;-1.178;-1.28;-9.491;-2.112;-2.535;1.589;-0.091;-0.734;-0.38;-0.099;-9.3;5.4;26.7;52.32;7969;2018-04-16 23:01:58:237
-4.092;-6.487;-0.496;-1.277;-9.461;-2.242;-2.701;2.713;1.366;-0.96;-0.241;0.027;-9.3;5.4;26.7;52.32;7979;2018-04-16 23:01:58:247
-4.092;-6.487;-0.496;-1.277;-9.461;-2.242;-2.701;2.713;1.366;-0.96;-0.241;0.027;-9.4;4.9;26.7;52.32;7988;2018-04-16 23:01:58:256
-3.91;-6.359;0.053;-1.299;-9.413;-2.426;-2.61;3.054;2.478;-1.009;-0.123;0.106;-9.4;4.9;26.7;52.32;7999;2018-04-16 23:01:58:267
-3.338;-6.086;-0.013;-1.299;-9.413;-2.426;-2.61;3.054;2.478;-0.768;0.149;0.204;-9.6;4.4;26.5;52.32;8009;2018-04-16 23:01:58:277
-3.338;-6.086;-0.013;-1.329;-9.366;-2.585;-1.846;3.286;2.457;-0.536;0.086;0.217;-9.6;4.4;26.5;52.32;8019;2018-04-16 23:01:58:287
-2.595;-6.16;-0.323;-1.329;-9.366;-2.585;-1.846;3.286;2.457;-0.277;-0.01;0.203;-9.6;4.5;27.2;52.32;8029;2018-04-16 23:01:58:297
-1.872;-6.351;-0.579;-1.368;-9.343;-2.645;-0.738;2.97;2.162;0.064;-0.272;0.199;-9.6;4.5;27.2;52.32;8039;2018-04-16 23:01:58:307
-1.872;-6.351;-0.579;-1.368;-9.343;-2.645;-0.738;2.97;2.162;0.064;-0.272;0.199;-9.5;4.4;27.3;52.32;8048;2018-04-16 23:01:58:316
-1.188;-6.359;-0.6;-1.427;-9.345;-2.607;0.24;2.986;2.007;0.215;-0.495;0.214;-9.5;4.4;27.3;52.32;8059;2018-04-16 23:01:58:327
-0.399;-6.81;-0.674;-1.427;-9.345;-2.607;0.24;2.986;2.007;0.354;-0.776;0.303;-9.6;4.4;27.2;52.32;8069;2018-04-16 23:01:58:337
0.061;-7.766;-1.433;-1.525;-9.354;-2.518;1.353;2.379;1.651;0.373;-0.898;0.382;-9.6;4.4;27.2;52.32;8078;2018-04-16 23:01:58:346
0.061;-7.766;-1.433;-1.525;-9.354;-2.518;1.353;2.379;1.651;0.324;-1.03;0.481;-9.9;4.2;27.2;52.32;8089;2018-04-16 23:01:58:357
0.34;-8.733;-2.039;-1.664;-9.355;-2.427;2.004;0.622;0.388;0.276;-1.097;0.544;-10.1;4.2;27.2;52.32;8102;2018-04-16 23:01:58:370
0.34;-8.733;-2.039;-1.664;-9.355;-2.427;2.004;0.622;0.388;0.098;-1.304;0.723;-10.1;4.2;27.2;52.32;8109;2018-04-16 23:01:58:377
0.743;-10.659;-3.474;-1.857;-9.334;-2.367;2.6;-1.325;-1.107;-0.066;-1.503;0.817;-10.4;4.1;27.1;52.32;8119;2018-04-16 23:01:58:387
1.241;-11.788;-4.514;-1.857;-9.334;-2.367;2.6;-1.325;-1.107;-0.195;-1.659;0.782;-10.4;4.1;27.1;52.32;8129;2018-04-16 23:01:58:397
1.241;-11.788;-4.514;-2.076;-9.295;-2.339;3.237;-2.676;-2.373;-0.195;-1.659;0.782;-10.7;4.1;26.9;52.32;8139;2018-04-16 23:01:58:407
0.937;-12.081;-5.046;-2.076;-9.295;-2.339;3.237;-2.676;-2.373;-0.337;-1.824;0.52;-10.7;4.1;26.9;52.32;8149;2018-04-16 23:01:58:417
0.561;-11.833;-5.422;-2.233;-9.261;-2.328;2.795;-2.573;-3.093;-0.379;-1.77;0.296;-10.9;4.1;26.8;52.32;8159;2018-04-16 23:01:58:427
0.19;-11.121;-5.488;-2.233;-9.261;-2.328;2.795;-2.573;-3.093;-0.386;-1.594;0.098;-10.9;4.1;26.8;52.32;8169;2018-04-16 23:01:58:437
0.19;-11.121;-5.488;-2.302;-9.242;-2.334;2.385;-1.746;-3.1;-0.381;-1.313;-0.061;-10.9;4.1;26.7;52.32;8179;2018-04-16 23:01:58:447
-0.119;-10.783;-5.541;-2.305;-9.239;-2.346;2.187;-1.545;-3.196;-0.363;-0.922;-0.195;-10.9;4.1;26.7;52.32;8189;2018-04-16 23:01:58:457
-0.414;-10.344;-5.823;-2.255;-9.244;-2.375;1.738;-0.987;-3.54;-0.237;-0.269;-0.357;-10.9;4.1;26.7;54.63;8199;2018-04-16 23:01:58:467
-0.414;-10.344;-5.823;-2.255;-9.244;-2.375;1.738;-0.987;-3.54;-0.048;0.077;-0.454;-10.8;4.1;26.8;54.63;8209;2018-04-16 23:01:58:477
-0.948;-9.932;-5.861;-2.255;-9.244;-2.375;1.738;-0.987;-3.54;-0.048;0.077;-0.454;-10.8;4.1;26.8;54.63;8218;2018-04-16 23:01:58:486
-0.948;-9.932;-5.861;-2.148;-9.275;-2.351;1.2;-0.657;-3.51;0.461;0.282;-0.54;-10.6;4.0;26.9;54.63;8229;2018-04-16 23:01:58:497
-2.122;-9.157;-4.081;-2.089;-9.301;-2.302;-0.033;0.144;-1.779;0.782;0.048;-0.539;-10.6;4.0;26.9;54.63;8239;2018-04-16 23:01:58:507
-3.65;-8.643;-2.319;-2.089;-9.301;-2.302;-0.033;0.144;-1.779;0.782;0.048;-0.539;-10.3;4.1;27.0;54.63;8249;2018-04-16 23:01:58:517
-3.65;-8.643;-2.319;-2.007;-9.356;-2.145;-2.142;0.935;-0.145;0.876;-0.081;-0.54;-10.3;4.1;27.0;54.63;8258;2018-04-16 23:01:58:526
-5.107;-7.945;-2.333;-2.007;-9.356;-2.145;-2.142;0.935;-0.145;0.671;-0.541;-0.437;-10.0;4.1;27.2;54.63;8269;2018-04-16 23:01:58:537
-5.921;-7.494;-2.073;-1.987;-9.393;-1.999;-3.934;1.899;-0.074;0.531;-0.74;-0.379;-10.0;4.1;27.2;54.63;8279;2018-04-16 23:01:58:547
-5.921;-7.494;-2.073;-1.987;-9.393;-1.999;-3.934;1.899;-0.074;-0.006;-1.214;-0.075;-9.7;4.2;27.3;54.63;8289;2018-04-16 23:01:58:557
-6.476;-8.223;-1.58;-2.027;-9.399;-1.929;-4.449;1.176;0.349;-0.137;-1.196;0.098;-9.7;4.2;27.3;54.63;8299;2018-04-16 23:01:58:567
-4.711;-11.088;-2.753;-2.027;-9.399;-1.929;-4.449;1.176;0.349;-0.137;-1.195;0.202;-9.4;4.4;27.4;54.63;8309;2018-04-16 23:01:58:577
-4.711;-11.088;-2.753;-2.102;-9.388;-1.899;-1.515;-2.798;-1.609;-0.137;-1.195;0.202;-9.4;4.4;27.4;54.63;8318;2018-04-16 23:01:58:586
-1.283;-14.641;-5.65;-2.102;-9.388;-1.899;-1.515;-2.798;-1.609;0.039;-1.189;0.046;-9.1;4.5;27.5;54.63;8330;2018-04-16 23:01:58:598
1.188;-16.858;-5.004;-2.113;-9.394;-1.861;2.796;-7.162;-4.501;0.0;-0.562;-0.237;-9.1;4.5;27.5;54.63;8338;2018-04-16 23:01:58:606
1.188;-16.858;-5.004;-2.113;-9.394;-1.861;2.796;-7.162;-4.501;-0.051;0.826;-0.556;-8.7;4.6;27.8;54.63;8349;2018-04-16 23:01:58:617
-0.269;-13.046;-0.662;-1.986;-9.414;-1.897;1.717;-3.632;1.235;0.024;1.02;-0.531;-8.7;4.6;27.8;54.63;8359;2018-04-16 23:01:58:627
-1.385;-6.445;3.23;-1.986;-9.414;-1.897;1.717;-3.632;1.235;0.228;0.875;-0.429;-8.3;4.7;27.9;54.63;8369;2018-04-16 23:01:58:637
-1.385;-6.445;3.23;-1.871;-9.441;-1.88;0.27;4.166;5.554;0.228;0.875;-0.429;-8.3;4.7;27.9;54.63;8379;2018-04-16 23:01:58:647
-2.787;-3.484;3.716;-1.871;-9.441;-1.88;0.27;4.166;5.554;0.337;0.263;-0.448;-8.1;4.8;28.0;54.63;8389;2018-04-16 23:01:58:657
-4.276;-4.653;2.41;-1.78;-9.47;-1.822;-1.681;5.88;4.778;0.304;0.016;-0.462;-8.1;4.8;28.0;54.63;8399;2018-04-16 23:01:58:667
-4.276;-4.653;2.41;-1.78;-9.47;-1.822;-1.681;5.88;4.778;0.252;0.188;-0.337;-7.8;4.9;28.0;54.63;8408;2018-04-16 23:01:58:676
-5.289;-6.827;1.381;-1.714;-9.49;-1.781;-3.215;3.51;3.673;0.252;0.188;-0.337;-7.8;4.9;28.0;54.63;8419;2018-04-16 23:01:58:687
-5.289;-6.827;1.381;-1.714;-9.49;-1.781;-3.215;3.51;3.673;0.259;0.624;0.027;-7.7;5.0;28.3;54.63;8429;2018-04-16 23:01:58:697
-5.683;-8.917;-0.202;-1.738;-9.491;-1.75;-3.944;0.574;1.547;0.219;0.779;0.312;-7.6;5.1;28.4;54.63;8439;2018-04-16 23:01:58:707
-5.683;-8.917;-0.202;-1.738;-9.491;-1.75;-3.944;0.574;1.547;0.109;0.721;0.563;-7.6;5.1;28.4;54.63;8449;2018-04-16 23:01:58:717
-5.476;-11.046;-1.512;-1.842;-9.469;-1.764;-3.633;-1.577;0.252;-0.028;0.486;0.729;-7.6;5.2;28.5;54.63;8459;2018-04-16 23:01:58:727
-4.693;-11.079;-0.988;-1.842;-9.469;-1.764;-3.633;-1.577;0.252;-0.04;-0.114;0.775;-7.6;5.2;28.5;54.63;8469;2018-04-16 23:01:58:737
-4.693;-11.079;-0.988;-1.991;-9.439;-1.763;-2.455;-1.377;1.161;0.072;-0.501;0.678;-7.6;5.4;28.5;54.63;8479;2018-04-16 23:01:58:747
-4.257;-10.244;-0.14;-1.991;-9.439;-1.763;-2.455;-1.377;1.161;0.178;-0.734;0.549;-7.6;5.4;28.5;54.63;8489;2018-04-16 23:01:58:757
-4.257;-10.244;-0.14;-1.991;-9.439;-1.763;-2.455;-1.377;1.161;0.178;-0.734;0.549;-7.6;5.4;28.5;54.63;8499;2018-04-16 23:01:58:767
-4.125;-9.576;0.005;-2.124;-9.423;-1.695;-2.001;-0.153;1.7;0.237;-0.825;0.516;-7.7;5.5;28.6;54.63;8509;2018-04-16 23:01:58:777
-3.339;-8.124;0.097;-2.272;-9.413;-1.551;-1.067;1.289;1.648;0.527;-1.139;0.575;-7.7;5.5;28.6;54.37;8519;2018-04-16 23:01:58:787
-3.121;-8.009;0.488;-2.272;-9.413;-1.551;-1.067;1.289;1.648;0.641;-1.196;0.542;-7.7;5.8;28.6;54.37;8529;2018-04-16 23:01:58:797
-3.121;-8.009;0.71;-2.408;-9.406;-1.377;-0.75;1.259;1.98;0.557;-0.977;0.495;-7.7;5.8;28.6;54.37;8539;2018-04-16 23:01:58:807
-3.253;-8.517;0.71;-2.408;-9.406;-1.377;-0.75;1.259;1.98;0.557;-0.977;0.495;-7.6;6.0;28.6;54.37;8549;2018-04-16 23:01:58:817
-3.261;-8.976;0.651;-2.529;-9.394;-1.231;-0.732;0.419;1.882;0.408;-0.75;0.511;-7.6;6.0;28.6;54.37;8559;2018-04-16 23:01:58:827
-3.261;-8.976;0.651;-2.529;-9.394;-1.231;-0.732;0.419;1.882;0.408;-0.75;0.511;-7.5;6.2;28.7;54.37;8569;2018-04-16 23:01:58:837
-2.904;-9.972;0.284;-2.646;-9.371;-1.165;-0.259;-0.601;1.449;0.092;-0.484;0.553;-7.5;6.2;28.7;54.37;8579;2018-04-16 23:01:58:847
-2.022;-10.502;0.166;-2.646;-9.371;-1.165;-0.259;-0.601;1.449;0.188;-0.784;0.511;-7.4;6.3;28.7;54.37;8589;2018-04-16 23:01:58:857
-2.022;-10.502;0.166;-2.758;-9.348;-1.089;0.946;-1.28;1.297;0.188;-0.784;0.511;-7.4;6.3;28.7;54.37;8599;2018-04-16 23:01:58:867
-1.688;-10.677;0.534;-2.758;-9.348;-1.089;0.946;-1.28;1.297;0.382;-1.081;0.343;-7.2;6.5;28.7;54.37;8609;2018-04-16 23:01:58:877
-0.952;-10.197;1.07;-2.835;-9.34;-0.943;1.458;-1.139;1.867;0.52;-1.117;0.275;-7.2;6.5;28.7;54.37;8618;2018-04-16 23:01:58:886
-0.952;-10.197;1.07;-2.835;-9.34;-0.943;1.458;-1.139;1.867;0.762;-0.962;0.186;-7.1;6.8;28.7;54.37;8629;2018-04-16 23:01:58:897
-0.323;-9.808;1.281;-2.866;-9.35;-0.733;2.543;-0.458;2.014;0.979;-0.58;0.075;-7.1;6.8;28.7;54.37;8639;2018-04-16 23:01:58:907
0.098;-9.437;0.924;-2.866;-9.35;-0.733;2.543;-0.458;2.014;0.979;-0.58;0.075;-6.9;7.1;28.7;54.37;8648;2018-04-16 23:01:58:916
0.098;-9.437;0.924;-2.846;-9.371;-0.508;2.84;-0.155;1.286;1.04;-0.304;-0.042;-6.9;7.1;28.7;54.37;8659;2018-04-16 23:01:58:927
-0.257;-9.554;0.251;-2.846;-9.371;-0.508;2.84;-0.155;1.286;0.957;-0.002;-0.144;-6.8;7.4;28.7;54.37;8669;2018-04-16 23:01:58:937
-0.534;-9.391;-0.101;-2.8;-9.393;-0.328;2.266;0.001;0.228;0.957;-0.002;-0.144;-6.8;7.4;28.7;54.37;8678;2018-04-16 23:01:58:946
-1.041;-8.921;-0.548;-2.8;-9.393;-0.328;2.266;0.001;0.228;0.779;0.056;-0.167;-6.5;7.8;28.7;54.37;8689;2018-04-16 23:01:58:957
-1.511;-8.738;-0.697;-2.762;-9.408;-0.193;1.528;0.502;-0.398;0.676;-0.099;-0.173;-6.5;7.8;28.7;54.37;8699;2018-04-16 23:01:58:967
-1.511;-8.738;-0.697;-2.762;-9.408;-0.193;1.528;0.502;-0.398;0.527;-0.465;-0.149;-6.3;8.1;28.8;54.37;8708;2018-04-16 23:01:58:976
-1.816;-8.871;-0.778;-2.733;-9.418;-0.071;0.917;0.547;-0.707;0.527;-0.465;-0.149;-6.3;8.1;28.8;54.37;8719;2018-04-16 23:01:58:987
-2.046;-9.036;-0.67;-2.733;-9.418;-0.071;0.917;0.547;-0.707;0.335;-0.827;-0.101;-6.0;8.5;28.6;54.37;8729;2018-04-16 23:01:58:997
-2.046;-9.036;-0.67;-2.713;-9.424;0.021;0.513;0.412;-0.537;0.177;-1.012;-0.092;-6.0;8.5;28.6;54.37;8739;2018-04-16 23:01:59:007
-2.585;-8.993;-0.044;-2.713;-9.424;0.021;0.513;0.412;-0.537;0.033;-1.148;-0.127;-5.7;8.9;28.6;54.37;8749;2018-04-16 23:01:59:017
-2.585;-9.213;0.856;-2.689;-9.43;0.092;-0.252;0.317;0.328;0.084;-1.026;-0.165;-5.7;8.9;28.6;54.37;8759;2018-04-16 23:01:59:027
-3.267;-9.213;0.856;-2.689;-9.43;0.092;-0.252;0.317;0.328;0.084;-1.026;-0.165;-5.3;9.2;28.5;54.37;8769;2018-04-16 23:01:59:037
-3.475;-9.219;1.168;-2.658;-9.438;0.175;-0.817;0.219;0.993;0.188;-0.797;-0.191;-5.3;9.2;28.5;54.37;8779;2018-04-16 23:01:59:047
-3.575;-9.196;1.271;-2.658;-9.438;0.175;-0.817;0.219;0.993;0.356;-0.286;-0.226;-4.9;9.6;28.5;54.37;8789;2018-04-16 23:01:59:057
-3.575;-9.196;1.271;-2.62;-9.446;0.268;-0.951;0.302;0.964;0.356;-0.286;-0.226;-4.9;9.6;28.5;54.37;8799;2018-04-16 23:01:59:067
-3.462;-9.032;1.024;-2.62;-9.446;0.268;-0.951;0.302;0.964;0.502;0.424;-0.227;-4.6;9.9;28.5;54.37;8811;2018-04-16 23:01:59:079
-3.235;-8.854;0.718;-2.587;-9.453;0.346;-0.761;0.528;0.524;0.557;0.759;-0.198;-4.6;9.9;28.5;54.37;8819;2018-04-16 23:01:59:087
-3.235;-8.854;0.718;-2.587;-9.453;0.346;-0.761;0.528;0.524;0.557;0.759;-0.198;-4.3;10.2;28.4;54.37;8829;2018-04-16 23:01:59:097
-2.812;-8.732;0.201;-2.562;-9.457;0.411;-0.25;0.726;-0.21;0.563;0.832;-0.136;-4.3;10.2;28.4;54.39;8839;2018-04-16 23:01:59:107
-2.581;-8.752;0.048;-2.562;-9.457;0.411;-0.25;0.726;-0.21;0.563;0.832;-0.136;-4.0;10.5;28.4;54.39;8849;2018-04-16 23:01:59:117
-2.581;-8.752;0.048;-2.547;-9.458;0.475;-0.001;0.676;-0.408;0.552;0.748;-0.104;-4.0;10.5;28.4;54.39;8859;2018-04-16 23:01:59:127
-2.454;-8.853;0.103;-2.547;-9.458;0.475;-0.001;0.676;-0.408;0.579;0.48;-0.048;-3.9;10.7;28.3;54.39;8869;2018-04-16 23:01:59:137
-2.521;-9.087;0.227;-2.544;-9.455;0.557;0.056;0.421;-0.364;0.641;0.26;0.004;-3.9;10.7;28.3;54.39;8879;2018-04-16 23:01:59:147
-2.521;-9.087;0.227;-2.544;-9.455;0.557;0.056;0.421;-0.364;0.641;0.26;0.004;-3.8;11.1;28.1;54.39;8889;2018-04-16 23:01:59:157
-2.587;-9.231;0.281;-2.552;-9.445;0.67;-0.035;0.214;-0.389;0.698;0.132;0.044;-3.8;11.1;28.1;54.39;8899;2018-04-16 23:01:59:167
-2.719;-9.234;0.243;-2.552;-9.445;0.67;-0.035;0.214;-0.389;0.739;0.028;0.075;-3.8;11.4;28.1;54.39;8909;2018-04-16 23:01:59:177
-2.774;-9.27;0.171;-2.571;-9.429;0.807;-0.175;0.167;-0.57;0.759;-0.042;0.106;-3.8;11.4;28.1;54.39;8919;2018-04-16 23:01:59:187
-2.774;-9.27;0.171;-2.571;-9.429;0.807;-0.175;0.167;-0.57;0.751;-0.099;0.159;-3.8;11.7;28.0;54.39;8929;2018-04-16 23:01:59:197
-2.781;-9.258;0.124;-2.602;-9.407;0.948;-0.179;0.149;-0.823;0.773;-0.145;0.18;-3.8;11.7;28.0;54.39;8938;2018-04-16 23:01:59:206
-2.805;-9.305;0.092;-2.618;-9.396;1.015;-0.187;0.091;-0.923;0.836;-0.215;0.197;-3.8;12.1;27.9;54.39;8949;2018-04-16 23:01:59:217
-2.805;-9.305;0.092;-2.618;-9.396;1.015;-0.187;0.091;-0.923;0.836;-0.215;0.197;-3.8;12.1;27.9;54.39;8959;2018-04-16 23:01:59:227
-2.569;-9.59;-0.043;-2.654;-9.365;1.192;0.085;-0.225;-1.235;0.963;-0.326;0.23;-3.8;12.4;27.7;54.39;8969;2018-04-16 23:01:59:237
-2.569;-9.59;-0.043;-2.654;-9.365;1.192;0.085;-0.225;-1.235;1.007;-0.373;0.243;-3.8;12.4;27.7;54.39;8980;2018-04-16 23:01:59:248
-1.787;-9.681;-0.378;-2.686;-9.33;1.381;0.898;-0.351;-1.759;1.007;-0.373;0.243;-3.9;12.7;27.5;54.39;8989;2018-04-16 23:01:59:257
-1.223;-9.639;-0.45;-2.686;-9.33;1.381;0.898;-0.351;-1.759;0.854;-0.38;0.228;-3.9;12.8;27.4;54.39;8999;2018-04-16 23:01:59:267
-1.223;-9.639;-0.45;-2.702;-9.302;1.529;1.56;-0.345;-1.966;0.663;-0.386;0.177;-3.9;12.8;27.4;54.39;9009;2018-04-16 23:01:59:277
-0.867;-9.685;-0.37;-2.702;-9.302;1.529;1.56;-0.345;-1.966;0.663;-0.386;0.177;-3.9;13.2;27.2;54.39;9019;2018-04-16 23:01:59:287
-0.572;-9.67;-0.083;-2.7;-9.285;1.635;2.063;-0.413;-1.834;0.501;-0.424;0.123;-3.9;13.3;27.2;54.39;9029;2018-04-16 23:01:59:297
-0.535;-9.626;0.043;-2.689;-9.28;1.681;2.154;-0.346;-1.637;0.406;-0.44;0.061;-3.9;13.5;27.1;54.39;9039;2018-04-16 23:01:59:307
-0.535;-9.626;0.043;-2.689;-9.28;1.681;2.154;-0.346;-1.637;0.406;-0.44;0.061;-3.9;13.5;27.1;54.39;9049;2018-04-16 23:01:59:317
-0.824;-9.51;0.77;-2.652;-9.278;1.75;1.828;-0.232;-0.98;0.319;-0.349;-0.067;-3.9;13.8;26.9;54.39;9059;2018-04-16 23:01:59:327
-1.34;-9.849;1.356;-2.652;-9.278;1.75;1.828;-0.232;-0.98;0.38;-0.139;-0.134;-3.9;13.8;26.9;54.39;9069;2018-04-16 23:01:59:337
-1.34;-9.849;1.356;-2.612;-9.275;1.825;1.213;-0.764;-0.392;0.38;-0.139;-0.134;-3.9;14.1;26.7;54.39;9078;2018-04-16 23:01:59:346
-1.52;-10.388;1.591;-2.612;-9.275;1.825;1.213;-0.764;-0.392;0.519;0.193;-0.182;-3.9;14.1;26.7;54.39;9089;2018-04-16 23:01:59:357
-1.709;-10.615;1.634;-2.584;-9.266;1.908;0.875;-1.349;-0.274;0.586;0.467;-0.244;-4.0;14.5;26.5;54.39;9100;2018-04-16 23:01:59:368
-1.879;-10.634;0.945;-2.584;-9.266;1.908;0.875;-1.349;-0.274;0.676;0.83;-0.321;-4.0;14.7;26.4;54.39;9109;2018-04-16 23:01:59:377
-1.879;-10.634;0.945;-2.557;-9.255;1.993;0.646;-1.392;-1.265;0.718;0.885;-0.335;-4.1;14.9;26.4;54.39;9119;2018-04-16 23:01:59:387
-1.957;-10.813;0.152;-2.557;-9.255;1.993;0.646;-1.392;-1.265;0.801;0.712;-0.31;-4.1;14.9;26.4;54.39;9129;2018-04-16 23:01:59:397
-1.822;-10.974;-0.381;-2.528;-9.24;2.1;0.706;-1.734;-2.48;0.801;0.712;-0.31;-4.1;14.9;26.4;54.39;9139;2018-04-16 23:01:59:407
-1.822;-10.974;-0.381;-2.528;-9.24;2.1;0.706;-1.734;-2.48;0.801;0.712;-0.31;-4.2;15.3;26.2;54.39;9149;2018-04-16 23:01:59:417
-1.393;-11.208;-0.761;-2.496;-9.229;2.183;1.102;-1.979;-2.944;0.382;0.105;-0.213;-4.2;15.3;26.2;54.39;9160;2018-04-16 23:01:59:428
-1.393;-11.208;-0.761;-2.496;-9.229;2.183;1.102;-1.979;-2.944;0.382;0.105;-0.213;-4.3;15.8;26.0;54.39;9169;2018-04-16 23:01:59:437
-0.962;-12.062;-0.134;-2.448;-9.24;2.191;1.486;-2.822;-2.325;-0.126;-0.33;-0.198;-4.3;15.8;26.0;52.96;9179;2018-04-16 23:01:59:447
-0.739;-12.536;0.6;-2.448;-9.24;2.191;1.486;-2.822;-2.325;-0.396;-0.591;-0.23;-4.3;16.2;26.0;52.96;9189;2018-04-16 23:01:59:457
-0.739;-12.536;0.6;-2.378;-9.269;2.146;1.622;-3.243;-1.382;-0.396;-0.591;-0.23;-4.3;16.2;26.0;52.96;9199;2018-04-16 23:01:59:467
-0.911;-12.249;1.312;-2.378;-9.269;2.146;1.622;-3.243;-1.382;-0.529;-0.77;-0.335;-4.4;16.5;25.9;52.96;9209;2018-04-16 23:01:59:477
-2.064;-10.602;2.296;-2.276;-9.308;2.085;0.753;-2.237;-0.079;-0.524;-0.778;-0.406;-4.4;16.5;25.9;52.96;9223;2018-04-16 23:01:59:491
-2.064;-10.602;2.296;-2.276;-9.308;2.085;0.753;-2.237;-0.079;-0.436;-0.495;-0.423;-4.5;16.8;25.8;52.96;9229;2018-04-16 23:01:59:497
-2.512;-9.845;2.1;-2.177;-9.345;2.023;-0.334;-0.5;0.077;-0.434;-0.194;-0.452;-4.5;16.8;25.8;52.96;9239;2018-04-16 23:01:59:507
-2.512;-9.845;2.1;-2.177;-9.345;2.023;-0.334;-0.5;0.077;-0.434;-0.194;-0.452;-4.5;17.0;25.6;52.96;9249;2018-04-16 23:01:59:517
-3.876;-9.109;1.026;-2.104;-9.384;1.921;-1.772;0.275;-0.895;-0.528;0.275;-0.486;-4.5;17.0;25.6;52.96;9259;2018-04-16 23:01:59:527
-5.175;-8.801;-1.045;-2.104;-9.384;1.921;-1.772;0.275;-0.895;-0.657;0.542;-0.452;-4.6;17.2;25.6;52.96;9269;2018-04-16 23:01:59:537
-6.679;-8.915;-3.3;-2.054;-9.425;1.766;-3.497;0.656;-3.639;-0.908;0.371;-0.396;-4.6;17.2;25.6;52.96;9280;2018-04-16 23:01:59:548
-6.679;-8.915;-3.3;-2.054;-9.425;1.766;-3.497;0.656;-3.639;-0.908;0.371;-0.396;-4.7;17.3;25.7;52.96;9288;2018-04-16 23:01:59:556
-6.65;-9.088;-2.179;-2.003;-9.474;1.547;-4.982;0.366;-4.527;-1.267;0.153;-0.259;-4.7;17.3;25.7;52.96;9299;2018-04-16 23:01:59:567
-6.65;-9.088;-2.179;-2.003;-9.474;1.547;-4.982;0.366;-4.527;-2.022;0.277;0.001;-4.9;17.4;25.7;52.96;9309;2018-04-16 23:01:59:577
-5.665;-9.109;1.363;-2.012;-9.529;1.149;-3.653;0.42;0.215;-2.246;0.467;0.051;-5.0;17.4;25.7;52.96;9320;2018-04-16 23:01:59:588
-5.665;-9.109;1.363;-2.012;-9.529;1.149;-3.653;0.42;0.215;-2.586;1.089;0.117;-5.0;17.4;25.7;52.96;9329;2018-04-16 23:01:59:597
-4.705;-9.552;2.952;-2.053;-9.57;0.616;-2.652;0.018;2.336;-2.486;1.047;0.149;-5.2;17.4;26.0;52.96;9339;2018-04-16 23:01:59:607
-4.571;-10.09;2.928;-2.053;-9.57;0.616;-2.652;0.018;2.336;-2.486;1.047;0.149;-5.4;17.3;26.1;52.96;9349;2018-04-16 23:01:59:617
-4.571;-10.09;2.928;-2.091;-9.58;0.127;-2.383;-0.436;2.706;-2.286;0.648;0.176;-5.4;17.3;26.1;52.96;9359;2018-04-16 23:01:59:627
-4.282;-9.734;2.824;-2.091;-9.58;0.127;-2.383;-0.436;2.706;-2.056;0.188;0.18;-5.7;17.1;26.2;52.96;9369;2018-04-16 23:01:59:637
-4.282;-9.734;2.824;-2.125;-9.57;-0.277;-2.047;-0.071;3.298;-2.056;0.188;0.18;-5.7;17.1;26.2;52.96;9379;2018-04-16 23:01:59:647
-4.507;-10.124;3.892;-2.125;-9.57;-0.277;-2.047;-0.071;3.298;-1.939;0.249;0.164;-5.9;16.8;26.5;52.96;9389;2018-04-16 23:01:59:657
-4.507;-10.746;3.275;-2.16;-9.543;-0.653;-2.218;-0.865;4.852;-1.609;0.892;0.277;-5.9;16.8;26.5;52.96;9399;2018-04-16 23:01:59:667
-3.971;-10.746;3.275;-2.16;-9.543;-0.653;-2.218;-0.865;4.852;-1.609;0.892;0.277;-6.2;16.4;26.8;52.96;9409;2018-04-16 23:01:59:677
-3.838;-10.986;2.148;-2.196;-9.506;-0.988;-1.642;-1.479;3.135;-1.493;1.106;0.28;-6.2;16.4;26.8;52.96;9419;2018-04-16 23:01:59:687
-3.838;-10.986;2.148;-2.196;-9.506;-0.988;-1.642;-1.479;3.135;-1.493;1.106;0.28;-6.5;15.9;27.0;52.96;9429;2018-04-16 23:01:59:697
