sep=;
acc_x;acc_y;acc_z;grav_x;grav_y;grav_z;lin_acc_x;lin_acc_y;lin_acc_z;gyro_x;gyro_y;gyro_z;mag_x;mag_y;mag_z;sound_lvl;time_ms;date_time
3.703;1.074;1.823;4.058;4.576;7.665;-0.246;-3.21;-6.176;1.93;-4.468;1.956;4.4;-36.1;4.8;42.11;8;2018-04-16 22:57:53:229
3.263;0.001;2.604;4.558;4.653;7.331;-1.295;-4.651;-4.727;1.984;-4.706;1.886;5.1;-35.7;5.4;42.11;18;2018-04-16 22:57:53:239
1.244;-2.089;2.575;5.362;4.705;6.73;-3.015;-5.947;-3.709;1.803;-4.3;2.188;6.1;-34.8;5.9;42.11;28;2018-04-16 22:57:53:249
1.244;-2.089;2.575;5.362;4.705;6.73;-3.015;-5.947;-3.709;1.803;-4.3;2.188;6.1;-34.8;5.9;42.11;39;2018-04-16 22:57:53:260
-0.855;-3.084;0.013;6.129;4.56;6.149;-6.984;-7.643;-6.136;1.233;-3.855;3.026;6.5;-34.4;6.7;42.11;48;2018-04-16 22:57:53:269
-0.855;-3.084;0.013;6.129;4.56;6.149;-6.984;-7.643;-6.136;1.233;-3.855;3.026;6.5;-34.4;6.7;42.11;57;2018-04-16 22:57:53:278
-0.855;-3.084;0.013;6.129;4.56;6.149;-6.984;-7.643;-6.136;1.233;-3.855;3.026;6.5;-34.4;6.7;42.11;68;2018-04-16 22:57:53:289
-0.855;-3.084;0.013;6.129;4.56;6.149;-6.984;-7.643;-6.136;1.233;-3.855;3.026;6.5;-34.4;6.7;42.11;78;2018-04-16 22:57:53:299
-0.801;-4.132;-0.821;6.491;4.405;5.885;-7.292;-8.537;-6.706;0.918;-3.99;3.596;6.8;-34.1;6.7;42.11;87;2018-04-16 22:57:53:308
-0.801;-4.132;-0.821;6.491;4.405;5.885;-7.292;-8.537;-6.706;0.918;-3.99;3.596;6.8;-34.1;6.7;42.11;98;2018-04-16 22:57:53:319
6.524;-10.704;2.064;8.623;2.153;4.144;-2.099;-12.857;-2.081;-1.045;-4.673;6.882;6.7;-33.9;7.5;42.11;108;2018-04-16 22:57:53:329
6.524;-10.704;2.064;8.623;2.153;4.144;-2.099;-12.857;-2.081;-1.045;-4.673;6.882;6.7;-33.9;7.5;42.11;118;2018-04-16 22:57:53:339
11.103;-10.854;3.71;9.192;0.665;3.352;1.911;-11.519;0.358;-1.239;-4.527;7.836;6.3;-33.5;7.7;42.11;128;2018-04-16 22:57:53:349
11.103;-10.854;3.71;9.192;0.665;3.352;1.911;-11.519;0.358;-1.239;-4.527;7.836;6.3;-33.5;7.7;42.11;137;2018-04-16 22:57:53:358
15.682;-10.394;5.03;9.435;-0.88;2.525;6.247;-9.514;2.505;-0.979;-4.44;8.021;6.1;-34.0;6.8;42.11;147;2018-04-16 22:57:53:368
15.682;-10.394;5.03;9.435;-0.88;2.525;6.247;-9.514;2.505;-0.979;-4.44;8.021;6.1;-34.0;6.8;42.11;158;2018-04-16 22:57:53:379
18.924;-10.721;6.553;9.348;-2.378;1.767;9.575;-8.343;4.786;-0.882;-3.676;7.762;6.5;-33.9;7.3;42.11;168;2018-04-16 22:57:53:389
19.959;-10.501;7.177;9.204;-3.031;1.504;10.755;-7.47;5.673;-1.09;-2.825;7.593;6.6;-33.9;7.4;42.11;178;2018-04-16 22:57:53:399
19.959;-10.501;7.177;9.204;-3.031;1.504;10.755;-7.47;5.673;-1.09;-2.825;7.593;6.6;-33.9;7.4;42.11;188;2018-04-16 22:57:53:409
22.517;-9.063;8.781;8.707;-4.343;1.225;13.811;-4.72;7.556;-1.912;-0.288;6.822;4.7;-33.3;7.3;42.11;198;2018-04-16 22:57:53:419
24.87;-8.091;10.736;8.707;-4.343;1.225;13.811;-4.72;7.556;-1.96;0.413;6.337;4.7;-33.3;7.3;42.11;207;2018-04-16 22:57:53:428
24.87;-8.091;10.736;8.101;-5.405;1.153;18.113;-2.169;10.443;-1.671;0.904;5.721;1.6;-32.3;7.5;42.11;217;2018-04-16 22:57:53:438
28.323;-6.779;12.471;7.777;-5.851;1.207;19.547;-1.323;10.939;-1.112;1.401;4.969;0.1;-31.7;7.7;49.09;228;2018-04-16 22:57:53:449
28.323;-6.779;12.471;7.777;-5.851;1.207;19.547;-1.323;10.939;-1.112;1.401;4.969;0.1;-31.7;7.7;49.09;238;2018-04-16 22:57:53:459
30.191;-4.788;10.822;7.267;-6.404;1.532;22.308;0.354;10.74;0.027;2.511;3.152;-3.2;-31.2;6.2;49.09;248;2018-04-16 22:57:53:469
29.215;-3.559;8.534;7.267;-6.404;1.532;22.308;0.354;10.74;0.352;3.068;1.665;-3.2;-31.2;6.2;49.09;258;2018-04-16 22:57:53:479
29.215;-3.559;8.534;6.955;-6.617;2.001;21.115;3.568;5.617;0.352;3.068;1.665;-6.9;-29.7;6.0;49.09;269;2018-04-16 22:57:53:490
25.939;-2.543;6.545;6.955;-6.617;2.001;21.115;3.568;5.617;0.332;3.393;0.323;-6.9;-29.7;6.0;49.09;277;2018-04-16 22:57:53:498
25.939;-2.543;6.545;6.809;-6.591;2.523;19.13;4.049;4.022;0.332;3.393;0.323;-8.8;-28.7;3.7;49.09;287;2018-04-16 22:57:53:508
19.865;-4.712;6.012;6.778;-6.522;2.772;13.086;1.811;3.24;0.529;3.531;-0.909;-9.4;-28.1;3.0;49.09;298;2018-04-16 22:57:53:519
19.865;-4.712;6.012;6.778;-6.522;2.772;13.086;1.811;3.24;0.529;3.531;-0.909;-9.4;-28.1;3.0;49.09;308;2018-04-16 22:57:53:529
13.15;-7.518;4.732;6.728;-6.293;3.361;9.591;-0.118;2.583;1.161;3.415;-1.308;-10.3;-28.8;2.6;49.09;318;2018-04-16 22:57:53:539
10.241;-8.06;3.072;6.692;-6.148;3.687;3.549;-1.913;-0.616;1.45;3.107;-1.222;-11.0;-29.8;1.7;49.09;328;2018-04-16 22:57:53:549
10.241;-8.06;3.072;6.692;-6.148;3.687;3.549;-1.913;-0.616;1.45;3.107;-1.222;-11.0;-29.8;1.7;49.09;338;2018-04-16 22:57:53:559
5.806;-7.578;-3.007;6.646;-5.913;4.128;-0.84;-1.665;-7.135;1.622;1.523;-0.71;-11.9;-29.2;1.8;49.09;348;2018-04-16 22:57:53:569
5.806;-7.578;-3.007;6.646;-5.913;4.128;-0.84;-1.665;-7.135;1.622;1.523;-0.71;-11.9;-29.2;1.8;49.09;358;2018-04-16 22:57:53:579
5.191;-7.925;-4.124;6.667;-5.846;4.189;-1.476;-2.079;-8.313;1.423;0.042;-0.348;-11.2;-28.2;2.6;49.09;368;2018-04-16 22:57:53:589
5.191;-7.925;-4.124;6.667;-5.846;4.189;-1.476;-2.079;-8.313;1.423;0.042;-0.348;-11.2;-28.2;2.6;49.09;378;2018-04-16 22:57:53:599
5.508;-7.16;6.092;6.743;-5.822;4.098;-1.236;-1.338;1.994;0.949;-1.792;0.728;-12.2;-27.4;1.5;49.09;388;2018-04-16 22:57:53:609
8.473;-4.361;6.365;6.723;-5.824;4.13;1.751;1.463;2.235;2.362;-1.308;1.168;-12.0;-28.9;2.0;49.09;398;2018-04-16 22:57:53:619
8.473;-4.361;6.365;6.723;-5.824;4.13;1.751;1.463;2.235;2.362;-1.308;1.168;-12.0;-28.9;2.0;49.09;408;2018-04-16 22:57:53:629
8.886;-2.733;-1.0;6.804;-5.686;4.189;2.082;2.953;-5.188;2.674;-2.011;0.707;-11.7;-26.7;3.1;49.09;418;2018-04-16 22:57:53:639
8.886;-2.733;-1.0;6.804;-5.686;4.189;2.082;2.953;-5.188;2.299;-2.838;0.454;-11.2;-27.2;5.2;49.09;427;2018-04-16 22:57:53:648
9.278;-1.227;2.343;6.926;-5.596;4.109;1.96;2.863;-5.109;2.299;-2.838;0.454;-11.2;-27.2;5.2;49.09;437;2018-04-16 22:57:53:658
8.947;-2.538;3.363;7.213;-5.358;3.929;1.734;2.82;-0.566;2.641;-3.279;-0.222;-11.2;-26.8;5.1;49.09;447;2018-04-16 22:57:53:668
8.947;-2.538;3.363;7.213;-5.358;3.929;1.734;2.82;-0.566;2.641;-3.279;-0.222;-11.2;-26.8;5.1;49.09;457;2018-04-16 22:57:53:678
8.947;-2.538;3.363;7.213;-5.358;3.929;1.734;2.82;-0.566;2.641;-3.279;-0.222;-11.2;-26.8;5.1;49.09;467;2018-04-16 22:57:53:688
8.947;-2.538;3.363;7.213;-5.358;3.929;1.734;2.82;-0.566;2.641;-3.279;-0.222;-11.2;-26.8;5.1;49.09;479;2018-04-16 22:57:53:700
8.947;-2.538;3.363;7.213;-5.358;3.929;1.734;2.82;-0.566;2.641;-3.279;-0.222;-11.2;-26.8;5.1;49.09;488;2018-04-16 22:57:53:709
8.947;-2.538;3.363;7.213;-5.358;3.929;1.734;2.82;-0.566;2.641;-3.279;-0.222;-11.2;-26.8;5.1;49.09;498;2018-04-16 22:57:53:719
8.947;-2.538;3.363;7.213;-5.358;3.929;1.734;2.82;-0.566;2.641;-3.279;-0.222;-11.2;-26.8;5.1;49.09;508;2018-04-16 22:57:53:729
8.947;-2.538;3.363;7.213;-5.358;3.929;1.734;2.82;-0.566;2.641;-3.279;-0.222;-11.2;-26.8;5.1;49.09;517;2018-04-16 22:57:53:738
8.947;-2.538;3.363;7.213;-5.358;3.929;1.734;2.82;-0.566;2.641;-3.279;-0.222;-11.2;-26.8;5.1;49.09;528;2018-04-16 22:57:53:749
8.947;-2.538;3.363;7.213;-5.358;3.929;1.734;2.82;-0.566;2.641;-3.279;-0.222;-11.2;-26.8;5.1;49.09;538;2018-04-16 22:57:53:759
8.947;-2.538;3.363;7.213;-5.358;3.929;1.734;2.82;-0.566;2.641;-3.279;-0.222;-11.2;-26.8;5.1;49.09;548;2018-04-16 22:57:53:769
8.947;-2.538;3.363;7.213;-5.358;3.929;1.734;2.82;-0.566;2.641;-3.279;-0.222;-11.2;-26.8;5.1;49.09;557;2018-04-16 22:57:53:778
8.947;-2.538;3.363;7.213;-5.358;3.929;1.734;2.82;-0.566;2.641;-3.279;-0.222;-11.2;-26.8;5.1;49.09;568;2018-04-16 22:57:53:789
8.947;-2.538;3.363;7.213;-5.358;3.929;1.734;2.82;-0.566;2.641;-3.279;-0.222;-11.2;-26.8;5.1;49.09;578;2018-04-16 22:57:53:799
8.947;-2.538;3.363;7.213;-5.358;3.929;1.734;2.82;-0.566;2.641;-3.279;-0.222;-11.2;-26.8;5.1;49.09;588;2018-04-16 22:57:53:809
8.947;-2.538;3.363;7.213;-5.358;3.929;1.734;2.82;-0.566;2.641;-3.279;-0.222;-11.2;-26.8;5.1;49.09;598;2018-04-16 22:57:53:819
8.947;-2.538;3.363;7.213;-5.358;3.929;1.734;2.82;-0.566;2.641;-3.279;-0.222;-11.2;-26.8;5.1;49.09;608;2018-04-16 22:57:53:829
8.947;-2.538;3.363;7.213;-5.358;3.929;1.734;2.82;-0.566;2.641;-3.279;-0.222;-11.2;-26.8;5.1;49.09;618;2018-04-16 22:57:53:839
8.947;-2.538;3.363;7.213;-5.358;3.929;1.734;2.82;-0.566;2.641;-3.279;-0.222;-11.2;-26.8;5.1;49.09;628;2018-04-16 22:57:53:849
7.49;-3.112;3.206;7.517;-5.051;3.762;-0.422;1.826;-2.413;2.949;-3.205;-0.458;-10.1;-25.6;7.3;49.09;639;2018-04-16 22:57:53:860
5.273;0.041;1.264;9.162;-3.405;0.797;-3.889;3.445;0.467;-0.095;-1.786;0.122;0.3;-20.8;16.0;49.09;648;2018-04-16 22:57:53:869
5.273;0.041;1.264;9.162;-3.405;0.797;-3.889;3.445;0.467;-0.575;-1.174;0.337;0.3;-20.8;15.5;49.09;659;2018-04-16 22:57:53:880
5.575;0.087;2.781;9.16;-3.436;0.682;-3.585;3.523;2.099;-0.575;-1.174;0.337;0.8;-20.8;15.5;49.09;668;2018-04-16 22:57:53:889
5.783;-1.293;3.715;9.129;-3.545;0.505;-3.346;2.253;3.209;-1.085;-0.465;0.597;1.3;-19.9;15.9;49.09;677;2018-04-16 22:57:53:898
5.453;-2.441;3.359;9.103;-3.623;0.414;-3.651;1.182;2.945;-1.109;-0.484;0.724;1.4;-21.4;15.7;48.65;687;2018-04-16 22:57:53:908
5.453;-2.441;3.359;9.103;-3.623;0.414;-3.651;1.182;2.945;-1.025;-0.612;0.911;1.4;-21.4;15.7;48.65;698;2018-04-16 22:57:53:919
4.757;-4.228;1.665;9.028;-3.824;0.196;-4.271;-0.404;1.469;-1.025;-0.612;0.911;1.3;-21.1;17.1;48.65;708;2018-04-16 22:57:53:929
4.757;-4.228;1.665;9.028;-3.824;0.196;-4.271;-0.404;1.469;-1.029;-0.992;1.537;1.3;-21.1;17.1;48.65;717;2018-04-16 22:57:53:938
7.029;-4.634;-1.423;8.9;-4.119;-0.061;-2.418;-0.376;-0.269;-0.892;-1.031;1.725;1.4;-21.7;15.4;48.65;727;2018-04-16 22:57:53:948
7.029;-4.634;-1.423;8.9;-4.119;-0.061;-2.418;-0.376;-0.269;-0.992;-0.99;1.859;1.4;-21.7;15.4;48.65;738;2018-04-16 22:57:53:959
7.213;-4.099;-3.863;8.713;-4.482;-0.405;-1.5;0.383;-3.458;-1.547;-1.236;2.242;1.7;-21.6;17.1;48.65;748;2018-04-16 22:57:53:969
7.213;-4.099;-3.863;8.713;-4.482;-0.405;-1.5;0.383;-3.458;-1.547;-1.236;2.242;1.7;-21.6;17.1;48.65;757;2018-04-16 22:57:53:978
11.559;-4.593;0.237;8.402;-4.99;-0.818;3.157;0.397;1.055;-1.514;-1.664;3.46;1.3;-22.1;16.0;48.65;768;2018-04-16 22:57:53:989
11.559;-4.593;0.237;8.402;-4.99;-0.818;3.157;0.397;1.055;-1.514;-1.664;3.46;1.3;-22.1;16.0;48.65;778;2018-04-16 22:57:53:999
16.704;-6.8;1.267;7.998;-5.554;-1.164;8.707;-1.245;2.431;-1.274;-1.016;3.538;1.8;-22.5;17.8;48.65;788;2018-04-16 22:57:54:009
16.704;-6.8;1.267;7.998;-5.554;-1.164;8.707;-1.245;2.431;-1.382;-0.117;3.637;1.8;-22.5;17.8;48.65;798;2018-04-16 22:57:54:019
9.616;-9.363;-2.907;7.554;-6.118;-1.292;2.062;-3.244;-1.614;-1.599;0.742;4.098;1.7;-23.1;17.1;48.65;808;2018-04-16 22:57:54:029
9.616;-9.363;-2.907;7.554;-6.118;-1.292;2.062;-3.244;-1.614;-1.398;1.818;5.112;1.7;-23.1;17.1;48.65;818;2018-04-16 22:57:54:039
5.047;-9.003;-1.774;6.929;-6.834;-1.207;-1.882;-2.17;-0.567;-1.075;1.989;5.443;1.1;-22.3;17.0;48.65;827;2018-04-16 22:57:54:048
3.069;-8.151;-1.909;6.929;-6.834;-1.207;-1.882;-2.17;-0.567;0.219;1.381;6.38;1.1;-22.3;17.0;48.65;838;2018-04-16 22:57:54:059
3.069;-8.151;-1.909;6.019;-7.676;-1.011;-3.935;0.061;-1.458;0.219;1.381;6.38;0.9;-21.9;16.8;48.65;848;2018-04-16 22:57:54:069
0.85;-6.665;-1.098;6.019;-7.676;-1.011;-3.935;0.061;-1.458;1.084;-0.374;7.346;0.9;-21.9;16.8;48.65;858;2018-04-16 22:57:54:079
0.85;-6.665;-1.098;4.789;-8.512;-0.88;-4.732;2.752;1.761;1.521;-1.14;7.639;1.1;-21.9;16.8;48.65;868;2018-04-16 22:57:54:089
0.572;-4.007;1.816;4.789;-8.512;-0.88;-4.732;2.752;1.761;1.521;-1.14;7.639;1.1;-21.9;16.8;48.65;878;2018-04-16 22:57:54:099
0.572;-4.007;1.816;3.409;-9.176;-0.59;-2.841;5.275;2.63;2.428;-1.286;7.599;0.3;-21.4;16.9;48.65;888;2018-04-16 22:57:54:109
0.425;-3.901;0.735;3.409;-9.176;-0.59;-2.841;5.275;2.63;2.428;-1.286;7.599;0.3;-21.4;16.9;48.65;899;2018-04-16 22:57:54:120
0.425;-3.901;0.735;2.01;-9.597;-0.138;-2.051;6.073;2.47;2.673;-0.97;7.301;-1.2;-20.1;17.3;48.65;908;2018-04-16 22:57:54:129
0.373;-2.6;0.821;2.01;-9.597;-0.138;-2.051;6.073;2.47;2.673;-0.97;7.301;-1.2;-20.1;17.3;48.65;918;2018-04-16 22:57:54:139
0.718;-1.744;-0.536;0.732;-9.777;0.229;-0.014;8.032;-0.765;1.577;-0.182;6.299;-2.7;-17.5;17.8;48.65;929;2018-04-16 22:57:54:150
0.718;-1.744;-0.536;0.732;-9.777;0.229;-0.014;8.032;-0.765;1.577;-0.182;6.299;-2.7;-17.5;17.8;48.65;939;2018-04-16 22:57:54:160
0.718;-1.744;-0.536;0.732;-9.777;0.229;-0.014;8.032;-0.765;1.577;-0.182;6.299;-2.7;-17.5;17.8;48.65;948;2018-04-16 22:57:54:169
1.264;-0.195;-3.724;-0.255;-9.799;0.276;1.506;9.304;-3.133;-0.068;-1.244;4.64;-3.9;-14.2;17.0;48.65;958;2018-04-16 22:57:54:179
1.207;-0.743;-2.276;-0.941;-9.76;0.179;2.148;9.016;-2.454;-0.848;-3.447;3.366;-4.2;-12.8;17.5;48.65;968;2018-04-16 22:57:54:189
1.207;-0.743;-2.276;-0.941;-9.76;0.179;2.148;9.016;-2.454;-1.07;-4.177;2.96;-4.2;-12.8;17.5;48.65;978;2018-04-16 22:57:54:199
1.207;-0.743;-2.276;-0.941;-9.76;0.179;2.148;9.016;-2.454;-1.07;-4.177;2.96;-4.2;-12.8;17.5;48.65;989;2018-04-16 22:57:54:210
0.843;-0.937;-0.3;-1.478;-9.694;0.068;2.321;8.757;-0.369;-1.164;-4.629;2.706;-2.6;-11.5;20.9;48.78;999;2018-04-16 22:57:54:220
0.843;-0.937;-0.3;-1.478;-9.694;0.068;2.321;8.757;-0.369;-1.101;-5.253;2.452;-2.6;-11.5;20.9;48.78;1008;2018-04-16 22:57:54:229
-18.781;-39.185;9.243;-2.338;-9.523;0.066;-16.443;-29.661;9.177;-1.101;-5.253;2.452;0.6;-10.3;20.9;48.78;1018;2018-04-16 22:57:54:239
-18.781;-39.185;9.243;-2.338;-9.523;0.066;-16.443;-29.661;9.177;-1.715;-5.093;3.906;0.6;-10.3;20.9;48.78;1028;2018-04-16 22:57:54:249
-11.232;-39.109;16.459;-2.632;-9.446;-0.106;-8.601;-29.663;16.565;-1.715;-5.093;3.906;3.1;-10.8;20.8;48.78;1038;2018-04-16 22:57:54:259
-11.232;-39.109;16.459;-2.632;-9.446;-0.106;-8.601;-29.663;16.565;-1.951;-1.607;-1.918;3.1;-10.8;20.8;48.78;1047;2018-04-16 22:57:54:268
-7.399;-15.899;3.509;-2.329;-9.519;-0.368;-5.07;-6.38;3.877;-1.951;-1.607;-1.918;4.3;-12.0;22.0;48.78;1058;2018-04-16 22:57:54:279
-7.399;-15.899;3.509;-2.329;-9.519;-0.368;-5.07;-6.38;3.877;-1.113;-0.414;-0.659;4.3;-12.0;22.0;48.78;1068;2018-04-16 22:57:54:289
-0.273;-0.338;-6.352;-2.238;-9.537;-0.462;1.965;9.199;-5.89;-1.113;-0.414;-0.659;4.8;-11.1;21.2;48.78;1078;2018-04-16 22:57:54:299
0.48;1.532;-3.4;-2.182;-9.56;-0.129;2.662;11.092;-3.27;1.833;-5.875;-0.713;5.8;-12.0;21.0;48.78;1088;2018-04-16 22:57:54:309
-1.696;-1.627;0.594;-2.182;-9.56;-0.129;2.662;11.092;-3.27;2.845;-7.683;-0.947;5.8;-12.0;21.0;48.78;1099;2018-04-16 22:57:54:320
-1.696;-1.627;0.594;-1.953;-9.581;0.755;-0.949;6.532;0.07;2.845;-7.683;-0.947;6.5;-12.3;19.4;48.78;1108;2018-04-16 22:57:54:329
-1.696;-1.627;0.594;-1.953;-9.581;0.755;-0.949;6.532;0.07;2.845;-7.683;-0.947;6.5;-12.3;19.4;48.78;1119;2018-04-16 22:57:54:340
-5.723;-6.462;-1.647;-1.832;-9.568;1.125;-3.891;3.106;-2.772;2.913;-7.263;-0.712;10.5;-9.8;21.4;48.78;1128;2018-04-16 22:57:54:349
-8.648;-12.051;-7.378;-1.646;-9.51;1.74;-7.002;-2.542;-9.118;1.563;-4.574;0.143;14.1;-7.6;19.8;48.78;1138;2018-04-16 22:57:54:359
-8.648;-12.051;-7.378;-1.646;-9.51;1.74;-7.002;-2.542;-9.118;-0.189;-1.407;0.428;14.1;-7.6;19.8;48.78;1148;2018-04-16 22:57:54:369
-5.347;-9.427;0.788;-1.724;-9.522;1.591;-3.624;0.095;-0.803;-0.189;-1.407;0.428;16.1;-7.3;19.6;48.78;1158;2018-04-16 22:57:54:379
-5.347;-9.427;0.788;-1.724;-9.522;1.591;-3.624;0.095;-0.803;-2.088;3.345;0.452;16.1;-7.3;19.6;48.78;1168;2018-04-16 22:57:54:389
-3.485;-9.187;3.036;-1.922;-9.558;1.061;-1.563;0.371;1.975;-2.088;3.345;0.452;15.9;-8.7;19.9;48.78;1177;2018-04-16 22:57:54:398
-3.485;-9.187;3.036;-1.922;-9.558;1.061;-1.563;0.371;1.975;-1.71;4.883;0.453;15.9;-8.7;19.9;48.78;1188;2018-04-16 22:57:54:409
-2.895;-9.685;1.663;-2.079;-9.566;0.587;-0.816;-0.119;1.076;-1.71;4.883;0.453;14.0;-10.1;20.2;48.78;1198;2018-04-16 22:57:54:419
-2.588;-9.675;1.693;-2.13;-9.563;0.432;-0.458;-0.112;1.261;-0.585;4.175;0.244;13.4;-9.5;20.5;48.78;1209;2018-04-16 22:57:54:430
-2.588;-9.675;1.693;-2.13;-9.563;0.432;-0.458;-0.112;1.261;0.043;3.495;0.175;13.4;-9.5;20.5;48.78;1219;2018-04-16 22:57:54:440
-2.601;-9.706;0.822;-2.191;-9.554;0.29;-0.411;-0.152;0.532;0.043;3.495;0.175;11.1;-9.9;22.1;48.78;1228;2018-04-16 22:57:54:449
-2.601;-9.706;0.822;-2.191;-9.554;0.29;-0.411;-0.152;0.532;0.2;2.997;0.094;11.1;-9.9;22.1;48.78;1238;2018-04-16 22:57:54:459
-2.382;-9.643;-0.09;-2.226;-9.549;0.204;-0.315;-0.22;-0.098;0.195;2.608;0.117;8.7;-10.7;21.8;48.78;1248;2018-04-16 22:57:54:469
-2.382;-9.643;-0.09;-2.226;-9.549;0.204;-0.315;-0.22;-0.098;0.195;2.608;0.117;8.7;-10.7;21.8;48.78;1258;2018-04-16 22:57:54:479
-2.144;-9.576;-0.283;-2.251;-9.544;0.133;0.107;-0.032;-0.415;0.059;1.697;0.108;8.0;-9.8;23.1;48.78;1268;2018-04-16 22:57:54:489
-2.144;-9.576;-0.283;-2.251;-9.544;0.133;0.107;-0.032;-0.415;-0.067;1.087;0.149;8.0;-9.8;23.1;48.78;1278;2018-04-16 22:57:54:499
-1.925;-9.389;-0.121;-2.279;-9.538;0.07;0.354;0.149;-0.191;-0.067;1.087;0.149;7.7;-10.0;20.8;48.78;1288;2018-04-16 22:57:54:509
-1.925;-9.389;-0.121;-2.279;-9.538;0.07;0.354;0.149;-0.191;-0.161;0.595;0.176;7.7;-10.0;20.8;48.78;1298;2018-04-16 22:57:54:519
-1.895;-9.55;0.085;-2.311;-9.53;0.018;0.416;-0.02;0.067;-0.217;0.165;0.187;8.0;-9.8;22.8;68.88;1308;2018-04-16 22:57:54:529
-1.895;-9.55;0.085;-2.311;-9.53;0.018;0.416;-0.02;0.067;-0.217;0.165;0.187;8.0;-9.8;22.8;68.88;1318;2018-04-16 22:57:54:539
-1.706;-9.619;0.373;-2.348;-9.521;-0.016;0.642;-0.097;0.39;-0.246;-0.239;0.213;7.7;-10.7;21.9;68.88;1327;2018-04-16 22:57:54:548
-1.706;-9.619;0.373;-2.348;-9.521;-0.016;0.642;-0.097;0.39;-0.246;-0.239;0.213;7.7;-10.7;21.9;68.88;1338;2018-04-16 22:57:54:559
-1.472;-9.665;0.731;-2.346;-9.522;0.028;0.873;-0.144;0.704;-0.206;-0.458;0.142;8.6;-10.3;21.6;68.88;1348;2018-04-16 22:57:54:569
-1.571;-9.598;1.0;-2.346;-9.522;0.028;0.873;-0.144;0.704;-0.148;-0.527;0.101;8.6;-10.3;21.6;68.88;1358;2018-04-16 22:57:54:579
-1.571;-9.598;1.0;-2.35;-9.521;0.077;0.761;0.047;0.955;-0.073;-0.553;0.078;8.7;-10.1;22.2;68.88;1368;2018-04-16 22:57:54:589
-1.623;-9.234;1.028;-2.35;-9.521;0.077;0.761;0.047;0.955;0.012;-0.541;0.054;8.7;-10.1;22.2;68.88;1378;2018-04-16 22:57:54:599
-1.623;-9.234;1.028;-2.355;-9.519;0.118;0.607;0.352;0.827;0.076;-0.508;0.022;8.6;-10.0;21.5;68.88;1388;2018-04-16 22:57:54:609
-1.918;-9.274;0.808;-2.355;-9.519;0.118;0.607;0.352;0.827;0.121;-0.462;-0.001;8.6;-10.0;21.5;68.88;1398;2018-04-16 22:57:54:619
-1.918;-9.274;0.808;-2.351;-9.519;0.169;0.201;0.08;0.544;0.142;-0.411;-0.021;8.7;-10.0;21.3;68.88;1408;2018-04-16 22:57:54:629
-2.361;-9.534;0.603;-2.351;-9.519;0.169;0.201;0.08;0.544;0.136;-0.334;-0.042;8.7;-10.0;21.3;68.88;1418;2018-04-16 22:57:54:639
-2.361;-9.534;0.603;-2.346;-9.519;0.214;-0.191;-0.077;0.269;0.136;-0.334;-0.042;9.0;-9.9;22.5;68.88;1428;2018-04-16 22:57:54:649
-2.661;-9.549;0.335;-2.346;-9.519;0.214;-0.191;-0.077;0.269;0.103;-0.29;-0.048;9.0;-9.9;22.5;68.88;1438;2018-04-16 22:57:54:659
-2.757;-9.454;0.23;-2.357;-9.516;0.238;-0.4;0.063;-0.008;0.078;-0.291;-0.05;8.6;-10.3;22.1;68.88;1448;2018-04-16 22:57:54:669
-2.757;-9.454;0.23;-2.357;-9.516;0.238;-0.4;0.063;-0.008;0.078;-0.291;-0.05;8.6;-10.3;22.1;68.88;1458;2018-04-16 22:57:54:679
-2.986;-9.319;0.028;-2.383;-9.51;0.236;-0.602;0.19;-0.209;0.053;-0.4;-0.049;8.8;-10.1;22.0;68.88;1468;2018-04-16 22:57:54:689
-2.986;-9.319;0.028;-2.383;-9.51;0.236;-0.602;0.19;-0.209;0.053;-0.4;-0.049;8.8;-10.1;22.0;68.88;1478;2018-04-16 22:57:54:699
-3.324;-9.276;-0.204;-2.384;-9.508;0.299;-0.94;0.231;-0.502;0.341;-1.014;-0.064;8.3;-10.3;22.1;68.88;1488;2018-04-16 22:57:54:709
-3.324;-9.276;-0.204;-2.384;-9.508;0.299;-0.94;0.231;-0.502;0.341;-1.014;-0.064;8.3;-10.3;22.1;68.88;1497;2018-04-16 22:57:54:718
-3.357;-9.291;0.436;-2.375;-9.503;0.478;-0.981;0.212;-0.042;0.588;-1.396;0.013;7.9;-10.3;22.2;68.88;1512;2018-04-16 22:57:54:733
-3.242;-9.28;0.408;-2.372;-9.494;0.637;-0.804;0.206;-0.392;0.502;-1.214;0.031;7.7;-10.2;22.2;68.88;1525;2018-04-16 22:57:54:746
-3.242;-9.28;0.408;-2.372;-9.494;0.637;-0.804;0.206;-0.392;0.502;-1.214;0.031;7.7;-10.2;22.2;68.88;1529;2018-04-16 22:57:54:750
-2.982;-9.288;-0.026;-2.372;-9.494;0.637;-0.804;0.206;-0.392;0.436;-1.029;0.084;7.7;-10.2;22.2;68.88;1538;2018-04-16 22:57:54:759
-2.982;-9.288;-0.026;-2.376;-9.484;0.761;-0.356;0.178;-0.986;0.436;-1.029;0.084;7.7;-10.1;22.1;68.88;1548;2018-04-16 22:57:54:769
-2.539;-9.4;-0.289;-2.376;-9.484;0.761;-0.356;0.178;-0.986;0.413;-0.902;0.097;7.7;-10.1;22.1;68.88;1559;2018-04-16 22:57:54:780
-2.539;-9.4;-0.289;-2.378;-9.475;0.86;-0.043;-0.006;-1.112;0.357;-0.753;0.082;7.9;-10.1;22.0;68.88;1568;2018-04-16 22:57:54:789
-2.3;-9.485;-0.19;-2.378;-9.475;0.86;-0.043;-0.006;-1.112;0.198;-0.381;0.068;7.9;-10.1;22.0;68.88;1578;2018-04-16 22:57:54:799
-2.3;-9.485;-0.19;-2.382;-9.471;0.894;0.2;0.008;-1.029;0.198;-0.381;0.068;8.2;-10.1;22.0;68.88;1588;2018-04-16 22:57:54:809
-2.119;-9.481;-0.098;-2.382;-9.471;0.894;0.2;0.008;-1.029;-0.064;0.216;0.045;8.2;-10.1;22.0;68.88;1598;2018-04-16 22:57:54:819
-2.084;-9.524;-0.059;-2.39;-9.473;0.846;0.306;-0.051;-0.905;-0.164;0.458;0.033;8.5;-10.0;21.9;51.35;1608;2018-04-16 22:57:54:829
-2.084;-9.524;-0.059;-2.39;-9.473;0.846;0.306;-0.051;-0.905;-0.164;0.458;0.033;8.5;-10.0;21.9;51.35;1618;2018-04-16 22:57:54:839
-2.045;-9.578;0.078;-2.399;-9.478;0.761;0.354;-0.1;-0.684;-0.263;0.706;0.009;8.8;-9.8;21.8;51.35;1628;2018-04-16 22:57:54:849
-2.045;-9.578;0.078;-2.399;-9.478;0.761;0.354;-0.1;-0.684;-0.283;0.756;-0.01;8.8;-9.8;21.8;51.35;1638;2018-04-16 22:57:54:859
-2.15;-9.561;0.318;-2.402;-9.484;0.666;0.252;-0.077;-0.348;-0.296;0.777;-0.027;9.0;-9.7;21.7;51.35;1648;2018-04-16 22:57:54:869
-2.15;-9.561;0.318;-2.402;-9.484;0.666;0.252;-0.077;-0.348;-0.302;0.779;-0.046;9.0;-9.7;21.7;51.35;1658;2018-04-16 22:57:54:879
-2.314;-9.451;0.436;-2.401;-9.491;0.571;0.087;0.04;-0.135;-0.302;0.779;-0.046;9.3;-9.6;21.6;51.35;1668;2018-04-16 22:57:54:889
-2.314;-9.451;0.436;-2.401;-9.491;0.571;0.087;0.04;-0.135;-0.275;0.723;-0.062;9.3;-9.6;21.6;51.35;1678;2018-04-16 22:57:54:899
-2.486;-9.371;0.462;-2.397;-9.497;0.488;-0.001;0.111;-0.035;-0.243;0.657;-0.066;9.5;-9.5;21.5;51.35;1688;2018-04-16 22:57:54:909
-2.486;-9.371;0.462;-2.397;-9.497;0.488;-0.001;0.111;-0.035;-0.243;0.657;-0.066;9.5;-9.5;21.5;51.35;1698;2018-04-16 22:57:54:919
-2.616;-9.365;0.481;-2.392;-9.501;0.426;-0.176;0.149;0.056;-0.173;0.498;-0.057;9.6;-9.5;21.4;51.35;1708;2018-04-16 22:57:54:929
-2.616;-9.365;0.481;-2.392;-9.501;0.426;-0.176;0.149;0.056;-0.173;0.498;-0.057;9.6;-9.5;21.4;51.35;1718;2018-04-16 22:57:54:939
-2.716;-9.41;0.498;-2.388;-9.504;0.38;-0.328;0.093;0.118;-0.143;0.36;-0.05;9.8;-9.4;21.4;51.35;1728;2018-04-16 22:57:54:949
-2.716;-9.41;0.498;-2.388;-9.504;0.38;-0.328;0.093;0.118;-0.143;0.36;-0.05;9.8;-9.4;21.4;51.35;1737;2018-04-16 22:57:54:958
-2.781;-9.355;0.516;-2.389;-9.505;0.341;-0.392;0.15;0.175;-0.131;0.235;-0.042;9.9;-9.3;21.4;51.35;1748;2018-04-16 22:57:54:969
-2.789;-9.298;0.541;-2.398;-9.503;0.33;-0.391;0.205;0.211;-0.12;0.172;-0.04;9.9;-9.3;21.3;51.35;1758;2018-04-16 22:57:54:979
-2.789;-9.298;0.541;-2.398;-9.503;0.33;-0.391;0.205;0.211;-0.12;0.172;-0.04;9.9;-9.3;21.3;51.35;1768;2018-04-16 22:57:54:989
-2.834;-9.266;0.569;-2.414;-9.5;0.32;-0.42;0.234;0.249;-0.104;0.111;-0.037;10.0;-9.3;21.4;51.35;1778;2018-04-16 22:57:54:999
-2.86;-9.276;0.589;-2.459;-9.488;0.32;-0.401;0.212;0.269;-0.053;-0.015;-0.026;10.0;-9.2;21.4;51.35;1788;2018-04-16 22:57:55:009
-2.86;-9.276;0.589;-2.459;-9.488;0.32;-0.401;0.212;0.269;-0.053;-0.015;-0.026;10.0;-9.2;21.4;51.35;1798;2018-04-16 22:57:55:019
-2.908;-9.355;0.595;-2.508;-9.474;0.339;-0.399;0.119;0.256;0.001;-0.131;-0.016;10.0;-9.2;21.5;51.35;1808;2018-04-16 22:57:55:029
-2.908;-9.355;0.595;-2.508;-9.474;0.339;-0.399;0.119;0.256;0.023;-0.181;-0.009;10.0;-9.2;21.5;51.35;1818;2018-04-16 22:57:55:039
-2.885;-9.38;0.56;-2.547;-9.463;0.367;-0.338;0.082;0.193;0.04;-0.224;-0.002;10.0;-9.2;21.5;51.35;1828;2018-04-16 22:57:55:049
-2.885;-9.38;0.56;-2.547;-9.463;0.367;-0.338;0.082;0.193;0.054;-0.261;0.002;10.0;-9.2;21.5;51.35;1838;2018-04-16 22:57:55:059
-2.818;-9.39;0.511;-2.567;-9.456;0.398;-0.227;0.081;0.095;0.07;-0.304;0.004;9.9;-9.3;21.6;51.35;1848;2018-04-16 22:57:55:069
-2.74;-9.364;0.457;-2.567;-9.456;0.398;-0.227;0.081;0.095;0.07;-0.304;0.004;9.9;-9.3;21.6;51.35;1858;2018-04-16 22:57:55:079
-2.673;-9.358;0.441;-2.572;-9.453;0.435;-0.101;0.095;0.005;0.104;-0.417;0.012;9.8;-9.3;21.6;51.35;1868;2018-04-16 22:57:55:089
-2.673;-9.358;0.441;-2.572;-9.453;0.435;-0.101;0.095;0.005;0.104;-0.417;0.012;9.8;-9.3;21.6;51.35;1878;2018-04-16 22:57:55:099
-2.612;-9.378;0.401;-2.571;-9.451;0.484;-0.041;0.073;-0.083;0.132;-0.5;0.011;9.7;-9.3;21.7;51.35;1888;2018-04-16 22:57:55:109
-2.612;-9.378;0.401;-2.571;-9.451;0.484;-0.041;0.073;-0.083;0.132;-0.5;0.011;9.7;-9.3;21.7;51.35;1898;2018-04-16 22:57:55:119
-2.591;-9.419;0.359;-2.567;-9.449;0.537;-0.023;0.031;-0.177;0.145;-0.54;0.009;9.6;-9.3;21.8;51.35;1909;2018-04-16 22:57:55:130
-2.575;-9.421;0.296;-2.567;-9.449;0.537;-0.023;0.031;-0.177;0.147;-0.546;0.004;9.6;-9.3;21.8;45.51;1922;2018-04-16 22:57:55:143
-2.575;-9.421;0.296;-2.562;-9.448;0.589;-0.008;0.017;-0.306;0.147;-0.546;0.004;9.5;-9.4;21.9;45.51;1928;2018-04-16 22:57:55:149
-2.575;-9.421;0.296;-2.562;-9.448;0.589;-0.008;0.017;-0.306;0.137;-0.524;0.001;9.5;-9.4;21.9;45.51;1938;2018-04-16 22:57:55:159
-2.611;-9.426;0.31;-2.555;-9.446;0.636;-0.055;0.02;-0.326;0.121;-0.483;-0.001;9.5;-9.4;22.0;45.51;1948;2018-04-16 22:57:55:169
-2.636;-9.433;0.316;-2.555;-9.446;0.636;-0.055;0.02;-0.326;0.087;-0.365;0.0;9.5;-9.4;22.0;45.51;1958;2018-04-16 22:57:55:179
-2.636;-9.433;0.316;-2.551;-9.446;0.666;-0.09;0.015;-0.349;0.087;-0.365;0.0;9.5;-9.4;22.1;45.51;1968;2018-04-16 22:57:55:189
-2.625;-9.42;0.317;-2.551;-9.446;0.666;-0.09;0.015;-0.349;0.05;-0.209;-0.001;9.5;-9.4;22.1;45.51;1978;2018-04-16 22:57:55:199
-2.625;-9.42;0.317;-2.549;-9.445;0.677;-0.057;0.068;-0.349;0.027;-0.094;0.0;9.6;-9.3;22.2;45.51;1988;2018-04-16 22:57:55:209
-2.549;-9.345;0.318;-2.549;-9.445;0.677;-0.057;0.068;-0.349;0.004;0.024;-0.004;9.6;-9.3;22.2;45.51;1998;2018-04-16 22:57:55:219
-2.549;-9.345;0.318;-2.549;-9.447;0.658;0.015;0.113;-0.338;-0.024;0.14;-0.006;9.7;-9.3;22.4;45.51;2008;2018-04-16 22:57:55:229
-2.541;-9.358;0.328;-2.549;-9.447;0.658;0.015;0.113;-0.338;-0.05;0.25;-0.011;9.7;-9.3;22.4;45.51;2017;2018-04-16 22:57:55:238
-2.587;-9.401;0.353;-2.55;-9.449;0.619;-0.024;0.051;-0.278;-0.065;0.34;-0.015;9.8;-9.2;22.3;45.51;2028;2018-04-16 22:57:55:249
-2.587;-9.401;0.353;-2.55;-9.449;0.619;-0.024;0.051;-0.278;-0.065;0.34;-0.015;9.8;-9.2;22.3;45.51;2038;2018-04-16 22:57:55:259
-2.608;-9.403;0.379;-2.552;-9.451;0.58;-0.056;0.048;-0.2;-0.075;0.446;-0.017;9.9;-9.2;22.3;45.51;2048;2018-04-16 22:57:55:269
-2.608;-9.403;0.379;-2.552;-9.451;0.58;-0.056;0.048;-0.2;-0.071;0.465;-0.015;9.9;-9.2;22.3;45.51;2058;2018-04-16 22:57:55:279
-2.579;-9.428;0.375;-2.555;-9.453;0.541;-0.024;0.024;-0.166;-0.071;0.468;-0.011;10.0;-9.1;22.3;45.51;2069;2018-04-16 22:57:55:290
-2.579;-9.428;0.375;-2.555;-9.453;0.541;-0.024;0.024;-0.166;-0.068;0.459;-0.011;10.0;-9.1;22.3;45.51;2079;2018-04-16 22:57:55:300
-2.519;-9.43;0.385;-2.558;-9.454;0.504;0.039;0.024;-0.118;-0.068;0.443;-0.007;10.0;-9.1;22.2;45.51;2088;2018-04-16 22:57:55:309
-2.519;-9.43;0.385;-2.558;-9.454;0.504;0.039;0.024;-0.118;-0.068;0.443;-0.007;10.0;-9.1;22.2;45.51;2098;2018-04-16 22:57:55:319
-2.507;-9.378;0.382;-2.559;-9.455;0.469;0.053;0.077;-0.087;-0.072;0.378;-0.007;10.1;-9.1;22.2;45.51;2108;2018-04-16 22:57:55:329
-2.507;-9.378;0.382;-2.559;-9.455;0.469;0.053;0.077;-0.087;-0.072;0.378;-0.007;10.1;-9.1;22.2;45.51;2118;2018-04-16 22:57:55:339
-2.529;-9.395;0.439;-2.561;-9.456;0.441;0.043;0.076;-0.031;-0.066;0.274;-0.007;10.2;-9.0;22.2;45.51;2128;2018-04-16 22:57:55:349
-2.529;-9.395;0.439;-2.561;-9.456;0.441;0.043;0.076;-0.031;-0.066;0.274;-0.007;10.2;-9.0;22.2;45.51;2138;2018-04-16 22:57:55:359
-2.529;-9.395;0.439;-2.561;-9.456;0.441;0.043;0.076;-0.031;-0.066;0.274;-0.007;10.2;-9.0;22.2;45.51;2148;2018-04-16 22:57:55:369
-2.558;-9.409;0.474;-2.561;-9.457;0.425;0.002;0.048;0.049;-0.027;0.128;-0.01;10.2;-8.9;22.1;45.51;2158;2018-04-16 22:57:55:379
-2.553;-9.392;0.484;-2.56;-9.457;0.424;0.007;0.065;0.06;0.0;0.033;-0.01;10.3;-8.9;22.1;45.51;2168;2018-04-16 22:57:55:389
-2.553;-9.392;0.484;-2.56;-9.457;0.424;0.007;0.065;0.06;0.0;0.033;-0.01;10.3;-8.9;22.1;45.51;2178;2018-04-16 22:57:55:399
-2.58;-9.43;0.444;-2.56;-9.457;0.429;-0.02;0.027;0.015;0.017;-0.062;-0.005;10.3;-8.9;22.1;45.51;2187;2018-04-16 22:57:55:408
-2.58;-9.43;0.444;-2.56;-9.457;0.429;-0.02;0.027;0.015;0.017;-0.062;-0.005;10.3;-8.9;22.1;45.51;2198;2018-04-16 22:57:55:419
-2.595;-9.396;0.43;-2.561;-9.456;0.443;-0.034;0.06;-0.013;0.045;-0.169;0.002;10.2;-8.9;22.1;45.51;2208;2018-04-16 22:57:55:429
-2.595;-9.396;0.43;-2.561;-9.456;0.443;-0.034;0.06;-0.013;0.068;-0.237;0.011;10.2;-8.9;22.1;45.51;2218;2018-04-16 22:57:55:439
-2.573;-9.378;0.421;-2.562;-9.455;0.465;-0.01;0.076;-0.044;0.068;-0.237;0.011;10.2;-8.9;22.0;47.5;2227;2018-04-16 22:57:55:448
-2.573;-9.378;0.421;-2.562;-9.455;0.465;-0.01;0.076;-0.044;0.079;-0.268;0.017;10.2;-8.9;22.0;47.5;2238;2018-04-16 22:57:55:459
-2.51;-9.404;0.372;-2.562;-9.453;0.492;0.052;0.049;-0.12;0.078;-0.275;0.017;10.1;-8.9;22.0;47.5;2248;2018-04-16 22:57:55:469
-2.51;-9.404;0.372;-2.562;-9.453;0.492;0.052;0.049;-0.12;0.071;-0.269;0.016;10.1;-8.9;22.0;47.5;2257;2018-04-16 22:57:55:478
-2.467;-9.384;0.332;-2.562;-9.452;0.516;0.095;0.068;-0.185;0.064;-0.263;0.018;10.0;-8.9;21.9;47.5;2267;2018-04-16 22:57:55:488
-2.467;-9.384;0.332;-2.562;-9.452;0.516;0.095;0.068;-0.185;0.067;-0.264;0.017;10.0;-8.9;21.9;47.5;2278;2018-04-16 22:57:55:499
-2.44;-9.432;0.267;-2.56;-9.451;0.54;0.121;0.019;-0.273;0.065;-0.259;0.012;9.9;-8.9;21.8;47.5;2288;2018-04-16 22:57:55:509
-2.44;-9.432;0.267;-2.56;-9.451;0.54;0.121;0.019;-0.273;0.065;-0.259;0.012;9.9;-8.9;21.8;47.5;2298;2018-04-16 22:57:55:519
-2.428;-9.439;0.26;-2.558;-9.451;0.561;0.13;0.011;-0.301;0.057;-0.225;0.007;9.8;-8.9;21.7;47.5;2308;2018-04-16 22:57:55:529
-2.407;-9.41;0.245;-2.558;-9.451;0.561;0.13;0.011;-0.301;0.044;-0.17;0.005;9.8;-8.9;21.7;47.5;2318;2018-04-16 22:57:55:539
-2.407;-9.41;0.245;-2.554;-9.451;0.572;0.142;0.042;-0.309;0.044;-0.17;0.005;9.8;-8.9;21.7;47.5;2328;2018-04-16 22:57:55:549
-2.427;-9.416;0.268;-2.554;-9.451;0.572;0.142;0.042;-0.309;0.021;-0.097;0.001;9.8;-8.9;21.7;47.5;2337;2018-04-16 22:57:55:558
-2.427;-9.416;0.268;-2.55;-9.452;0.569;0.105;0.026;-0.287;0.001;-0.043;-0.002;9.8;-8.9;21.7;47.5;2348;2018-04-16 22:57:55:569
-2.467;-9.438;0.279;-2.55;-9.452;0.569;0.105;0.026;-0.287;-0.017;0.011;-0.007;9.8;-8.9;21.7;47.5;2359;2018-04-16 22:57:55:580
-2.467;-9.438;0.279;-2.545;-9.454;0.552;0.042;0.009;-0.251;-0.028;0.056;-0.01;9.8;-8.9;21.6;47.5;2368;2018-04-16 22:57:55:589
-2.526;-9.456;0.323;-2.545;-9.454;0.552;0.042;0.009;-0.251;-0.028;0.056;-0.01;9.8;-8.9;21.6;47.5;2378;2018-04-16 22:57:55:599
-2.526;-9.456;0.323;-2.543;-9.456;0.532;-0.011;0.019;-0.171;-0.037;0.122;-0.012;9.8;-8.9;21.5;47.5;2388;2018-04-16 22:57:55:609
-2.573;-9.408;0.371;-2.543;-9.456;0.532;-0.011;0.019;-0.171;-0.035;0.142;-0.013;9.8;-8.9;21.5;47.5;2398;2018-04-16 22:57:55:619
-2.573;-9.408;0.371;-2.544;-9.457;0.512;-0.032;0.073;-0.128;-0.037;0.162;-0.011;9.8;-8.9;21.5;47.5;2408;2018-04-16 22:57:55:629
-2.559;-9.339;0.413;-2.544;-9.457;0.512;-0.032;0.073;-0.128;-0.037;0.173;-0.011;9.8;-8.9;21.5;47.5;2418;2018-04-16 22:57:55:639
-2.559;-9.339;0.413;-2.545;-9.458;0.492;-0.001;0.124;-0.085;-0.043;0.187;-0.004;9.8;-8.9;21.4;47.5;2428;2018-04-16 22:57:55:649
-2.518;-9.37;0.394;-2.545;-9.458;0.492;-0.001;0.124;-0.085;-0.043;0.187;-0.004;9.8;-8.9;21.4;47.5;2438;2018-04-16 22:57:55:659
-2.518;-9.37;0.394;-2.547;-9.458;0.471;0.041;0.06;-0.08;-0.056;0.17;0.002;9.8;-9.0;21.5;47.5;2448;2018-04-16 22:57:55:669
-2.48;-9.395;0.378;-2.547;-9.458;0.471;0.041;0.06;-0.08;-0.056;0.17;0.002;9.8;-9.0;21.5;47.5;2458;2018-04-16 22:57:55:679
-2.48;-9.395;0.378;-2.546;-9.459;0.454;0.07;0.059;-0.07;-0.049;0.103;0.001;9.8;-9.0;21.5;47.5;2468;2018-04-16 22:57:55:689
-2.478;-9.404;0.384;-2.546;-9.459;0.454;0.07;0.059;-0.07;-0.04;0.059;-0.001;9.8;-9.0;21.5;47.5;2478;2018-04-16 22:57:55:699
-2.478;-9.404;0.384;-2.545;-9.46;0.444;0.085;0.061;-0.018;-0.031;0.015;0.001;9.9;-9.0;21.5;47.5;2488;2018-04-16 22:57:55:709
-2.45;-9.392;0.458;-2.545;-9.46;0.444;0.085;0.061;-0.018;-0.031;0.015;0.001;9.9;-9.0;21.5;47.5;2498;2018-04-16 22:57:55:719
-2.45;-9.392;0.458;-2.541;-9.461;0.443;0.089;0.068;0.055;-0.018;-0.043;-0.005;9.9;-9.0;21.5;47.5;2508;2018-04-16 22:57:55:729
-2.468;-9.409;0.536;-2.541;-9.461;0.443;0.089;0.068;0.055;-0.01;-0.054;-0.009;9.9;-9.0;21.5;47.5;2518;2018-04-16 22:57:55:739
-2.468;-9.409;0.536;-2.541;-9.461;0.443;0.089;0.068;0.055;-0.01;-0.054;-0.009;9.9;-9.0;21.5;47.5;2528;2018-04-16 22:57:55:749
-2.484;-9.425;0.564;-2.537;-9.462;0.449;0.053;0.037;0.115;-0.006;-0.055;-0.009;9.9;-9.0;21.6;49.8;2538;2018-04-16 22:57:55:759
-2.494;-9.45;0.536;-2.533;-9.463;0.455;0.039;0.013;0.082;0.001;-0.044;-0.017;10.0;-8.9;21.6;49.8;2548;2018-04-16 22:57:55:769
-2.494;-9.45;0.536;-2.533;-9.463;0.455;0.039;0.013;0.082;0.001;-0.044;-0.017;10.0;-8.9;21.6;49.8;2558;2018-04-16 22:57:55:779
-2.527;-9.463;0.485;-2.528;-9.464;0.46;0.001;0.001;0.025;0.01;-0.06;-0.02;9.9;-9.0;21.6;49.8;2568;2018-04-16 22:57:55:789
-2.527;-9.463;0.485;-2.528;-9.464;0.46;0.001;0.001;0.025;0.01;-0.06;-0.02;9.9;-9.0;21.6;49.8;2577;2018-04-16 22:57:55:798
-2.567;-9.457;0.425;-2.524;-9.465;0.464;-0.042;0.008;-0.039;0.001;-0.089;-0.022;10.0;-9.0;21.7;49.8;2587;2018-04-16 22:57:55:808
-2.567;-9.457;0.425;-2.524;-9.465;0.464;-0.042;0.008;-0.039;0.001;-0.089;-0.022;10.0;-9.0;21.7;49.8;2598;2018-04-16 22:57:55:819
-2.579;-9.397;0.377;-2.521;-9.466;0.466;-0.057;0.068;-0.089;-0.009;-0.132;-0.017;10.0;-9.0;21.8;49.8;2608;2018-04-16 22:57:55:829
-2.58;-9.353;0.396;-2.521;-9.466;0.466;-0.057;0.068;-0.089;-0.007;-0.155;-0.015;10.0;-9.0;21.8;49.8;2618;2018-04-16 22:57:55:839
-2.586;-9.335;0.406;-2.519;-9.466;0.471;-0.061;0.113;-0.075;-0.009;-0.177;-0.013;9.9;-8.9;21.7;49.8;2628;2018-04-16 22:57:55:849
-2.586;-9.335;0.406;-2.519;-9.466;0.471;-0.061;0.113;-0.075;-0.009;-0.177;-0.013;9.9;-8.9;21.7;49.8;2637;2018-04-16 22:57:55:858
-2.6;-9.355;0.542;-2.517;-9.466;0.478;-0.083;0.111;0.065;-0.02;-0.172;-0.012;9.9;-9.0;21.7;49.8;2648;2018-04-16 22:57:55:869
-2.6;-9.355;0.542;-2.517;-9.466;0.478;-0.083;0.111;0.065;-0.02;-0.172;-0.012;9.9;-9.0;21.7;49.8;2658;2018-04-16 22:57:55:879
-2.617;-9.39;0.537;-2.516;-9.466;0.478;-0.101;0.076;0.059;-0.037;-0.103;-0.007;9.9;-9.0;21.7;49.8;2668;2018-04-16 22:57:55:889
-2.617;-9.39;0.537;-2.516;-9.466;0.478;-0.101;0.076;0.059;-0.037;-0.103;-0.007;9.9;-9.0;21.7;49.8;2677;2018-04-16 22:57:55:898
-2.585;-9.376;0.479;-2.517;-9.466;0.476;-0.068;0.091;0.003;-0.027;-0.061;-0.002;9.9;-8.9;21.8;49.8;2687;2018-04-16 22:57:55:908
-2.585;-9.376;0.479;-2.517;-9.466;0.476;-0.068;0.091;0.003;-0.027;-0.061;-0.002;9.9;-8.9;21.8;49.8;2697;2018-04-16 22:57:55:918
-2.606;-9.428;0.498;-2.518;-9.466;0.477;-0.088;0.037;0.021;-0.006;-0.046;-0.001;9.9;-8.9;21.7;49.8;2707;2018-04-16 22:57:55:928
-2.606;-9.428;0.498;-2.518;-9.466;0.477;-0.088;0.037;0.021;-0.011;-0.034;0.0;9.9;-8.9;21.7;49.8;2718;2018-04-16 22:57:55:939
-2.64;-9.432;0.485;-2.521;-9.465;0.477;-0.119;0.033;0.008;-0.006;-0.024;-0.004;9.9;-8.9;21.6;49.8;2728;2018-04-16 22:57:55:949
-2.64;-9.432;0.485;-2.521;-9.465;0.477;-0.119;0.033;0.008;-0.006;-0.024;-0.004;9.9;-8.9;21.6;49.8;2738;2018-04-16 22:57:55:959
-2.65;-9.366;0.419;-2.524;-9.464;0.479;-0.126;0.098;-0.06;0.012;-0.034;0.002;9.9;-8.8;21.4;49.8;2748;2018-04-16 22:57:55:969
-2.65;-9.366;0.419;-2.524;-9.464;0.479;-0.126;0.098;-0.06;0.012;-0.034;0.002;9.9;-8.8;21.4;49.8;2758;2018-04-16 22:57:55:979
-2.628;-9.367;0.394;-2.528;-9.463;0.486;-0.099;0.095;-0.092;0.042;-0.072;0.009;9.9;-8.8;21.3;49.8;2768;2018-04-16 22:57:55:989
-2.628;-9.367;0.394;-2.528;-9.463;0.486;-0.099;0.095;-0.092;0.042;-0.072;0.009;9.9;-8.8;21.3;49.8;2778;2018-04-16 22:57:55:999
-2.518;-9.406;0.39;-2.531;-9.462;0.494;0.013;0.056;-0.104;0.035;-0.062;0.011;9.9;-8.7;21.4;49.8;2788;2018-04-16 22:57:56:009
-2.518;-9.406;0.39;-2.531;-9.462;0.494;0.013;0.056;-0.104;0.035;-0.062;0.011;9.9;-8.7;21.4;49.8;2798;2018-04-16 22:57:56:019
-2.447;-9.469;0.354;-2.529;-9.462;0.497;0.082;-0.007;-0.143;0.016;-0.032;0.002;10.0;-8.7;21.3;49.8;2808;2018-04-16 22:57:56:029
-2.447;-9.469;0.354;-2.529;-9.462;0.497;0.082;-0.007;-0.143;0.012;-0.022;-0.004;10.0;-8.7;21.3;49.8;2818;2018-04-16 22:57:56:039
-2.419;-9.45;0.3;-2.525;-9.463;0.496;0.106;0.013;-0.195;0.01;-0.029;-0.007;10.0;-8.8;21.3;49.8;2828;2018-04-16 22:57:56:049
-2.419;-9.45;0.3;-2.525;-9.463;0.496;0.106;0.013;-0.195;0.01;-0.032;-0.013;10.0;-8.8;21.3;49.89;2838;2018-04-16 22:57:56:059
-2.509;-9.436;0.327;-2.522;-9.464;0.494;0.012;0.028;-0.167;0.004;-0.033;-0.015;10.0;-8.7;21.3;49.89;2848;2018-04-16 22:57:56:069
-2.509;-9.436;0.327;-2.522;-9.464;0.494;0.012;0.028;-0.167;-0.004;-0.023;-0.018;10.0;-8.7;21.3;49.89;2858;2018-04-16 22:57:56:079
-2.616;-9.436;0.377;-2.519;-9.465;0.49;-0.096;0.029;-0.112;-0.016;-0.012;-0.02;10.1;-8.7;21.3;49.89;2868;2018-04-16 22:57:56:089
-2.616;-9.436;0.377;-2.519;-9.465;0.49;-0.096;0.029;-0.112;-0.029;0.01;-0.013;10.1;-8.7;21.3;49.89;2877;2018-04-16 22:57:56:098
-2.707;-9.485;0.395;-2.52;-9.465;0.481;-0.187;-0.019;-0.086;-0.034;0.016;-0.013;10.1;-8.7;21.2;49.89;2888;2018-04-16 22:57:56:109
-2.707;-9.485;0.395;-2.52;-9.465;0.481;-0.187;-0.019;-0.086;-0.04;0.029;-0.005;10.1;-8.7;21.2;49.89;2898;2018-04-16 22:57:56:119
-2.71;-9.316;0.378;-2.523;-9.465;0.47;-0.187;0.149;-0.092;-0.04;0.029;-0.005;10.2;-8.7;21.2;49.89;2908;2018-04-16 22:57:56:129
-2.656;-9.262;0.379;-2.523;-9.465;0.47;-0.187;0.149;-0.092;-0.035;0.029;0.002;10.2;-8.7;21.2;49.89;2918;2018-04-16 22:57:56:139
-2.656;-9.262;0.379;-2.527;-9.464;0.462;-0.086;0.19;-0.032;-0.028;0.021;0.006;10.2;-8.8;21.3;49.89;2928;2018-04-16 22:57:56:149
-2.534;-9.307;0.485;-2.527;-9.464;0.462;-0.086;0.19;-0.032;-0.028;0.021;0.006;10.2;-8.8;21.3;49.89;2938;2018-04-16 22:57:56:159
-2.534;-9.307;0.485;-2.527;-9.464;0.462;-0.086;0.19;-0.032;-0.028;0.051;0.009;10.2;-8.8;21.3;49.89;2948;2018-04-16 22:57:56:169
-2.47;-9.361;0.528;-2.53;-9.464;0.454;0.06;0.103;0.074;-0.049;0.125;0.001;10.2;-8.8;21.4;49.89;2958;2018-04-16 22:57:56:179
-2.395;-9.422;0.497;-2.529;-9.465;0.438;0.134;0.042;0.059;-0.059;0.161;0.0;10.3;-8.8;21.4;49.89;2968;2018-04-16 22:57:56:189
-2.395;-9.422;0.497;-2.529;-9.465;0.438;0.134;0.042;0.059;-0.054;0.172;-0.006;10.3;-8.8;21.4;49.89;2978;2018-04-16 22:57:56:199
-2.455;-9.448;0.466;-2.527;-9.466;0.422;0.072;0.018;0.043;-0.054;0.172;-0.006;10.3;-8.8;21.4;49.89;2988;2018-04-16 22:57:56:209
-2.455;-9.448;0.466;-2.527;-9.466;0.422;0.072;0.018;0.043;-0.016;0.122;-0.016;10.3;-8.8;21.4;49.89;2999;2018-04-16 22:57:56:220
-2.549;-9.418;0.457;-2.525;-9.467;0.415;-0.023;0.049;0.042;-0.007;0.093;-0.015;10.2;-8.9;21.4;49.89;3009;2018-04-16 22:57:56:230
-2.549;-9.418;0.457;-2.525;-9.467;0.415;-0.023;0.049;0.042;-0.007;0.093;-0.015;10.2;-8.9;21.4;49.89;3018;2018-04-16 22:57:56:239
-2.549;-9.418;0.457;-2.525;-9.467;0.415;-0.023;0.049;0.042;-0.007;0.093;-0.015;10.2;-8.9;21.4;49.89;3034;2018-04-16 22:57:56:255
-2.549;-9.418;0.457;-2.525;-9.467;0.415;-0.023;0.049;0.042;-0.007;0.093;-0.015;10.2;-8.9;21.4;49.89;3042;2018-04-16 22:57:56:263
-2.549;-9.418;0.457;-2.525;-9.467;0.415;-0.023;0.049;0.042;-0.007;0.093;-0.015;10.2;-8.9;21.4;49.89;3047;2018-04-16 22:57:56:268
-2.58;-9.418;0.438;-2.525;-9.467;0.413;-0.055;0.049;0.025;-0.002;0.071;-0.017;10.2;-8.9;21.4;49.89;3059;2018-04-16 22:57:56:280
-2.579;-9.386;0.468;-2.528;-9.466;0.412;-0.051;0.08;0.056;-0.006;-0.049;0.004;10.3;-8.9;21.8;49.89;3068;2018-04-16 22:57:56:289
-2.579;-9.386;0.468;-2.528;-9.466;0.412;-0.051;0.08;0.056;-0.006;-0.05;0.006;10.3;-8.9;21.8;49.89;3078;2018-04-16 22:57:56:299
-2.54;-9.428;0.492;-2.529;-9.466;0.416;-0.011;0.037;0.076;-0.006;-0.05;0.006;10.3;-8.9;21.8;49.89;3088;2018-04-16 22:57:56:309
-2.54;-9.428;0.492;-2.529;-9.466;0.416;-0.011;0.037;0.076;0.013;-0.042;0.001;10.3;-8.9;21.8;49.89;3098;2018-04-16 22:57:56:319
-2.5;-9.374;0.464;-2.529;-9.466;0.423;0.009;0.065;0.072;0.026;-0.029;0.0;10.3;-8.9;21.8;49.89;3108;2018-04-16 22:57:56:329
-2.5;-9.374;0.464;-2.529;-9.466;0.423;0.009;0.065;0.072;0.026;-0.029;0.0;10.3;-8.9;21.8;49.89;3118;2018-04-16 22:57:56:339
-2.486;-9.39;0.42;-2.527;-9.466;0.429;0.041;0.076;-0.009;0.032;0.007;-0.007;10.3;-8.9;21.8;49.89;3128;2018-04-16 22:57:56:349
-2.503;-9.397;0.35;-2.527;-9.466;0.429;0.041;0.076;-0.009;0.017;0.034;-0.005;10.3;-8.9;21.8;49.89;3138;2018-04-16 22:57:56:359
-2.503;-9.397;0.35;-2.526;-9.466;0.429;0.014;0.084;-0.103;0.017;0.034;-0.005;10.3;-8.9;21.8;49.62;3148;2018-04-16 22:57:56:369
-2.545;-9.404;0.274;-2.526;-9.466;0.429;0.014;0.084;-0.103;0.006;0.039;-0.004;10.3;-8.9;21.8;49.62;3158;2018-04-16 22:57:56:379
-2.545;-9.404;0.274;-2.527;-9.466;0.424;-0.038;0.059;-0.131;-0.004;0.029;0.001;10.2;-8.9;21.7;49.62;3168;2018-04-16 22:57:56:389
-2.575;-9.425;0.33;-2.527;-9.466;0.424;-0.038;0.059;-0.131;-0.004;0.029;0.001;10.2;-8.9;21.7;49.62;3178;2018-04-16 22:57:56:399
-2.575;-9.425;0.33;-2.53;-9.466;0.418;-0.044;0.053;-0.05;-0.024;0.015;0.006;10.2;-8.8;21.7;49.62;3188;2018-04-16 22:57:56:409
-2.515;-9.392;0.403;-2.53;-9.466;0.418;-0.044;0.053;-0.05;-0.024;0.015;0.006;10.2;-8.8;21.7;49.62;3198;2018-04-16 22:57:56:419
-2.477;-9.352;0.421;-2.532;-9.465;0.411;0.055;0.114;0.011;-0.033;0.034;0.01;10.1;-8.9;21.9;49.62;3208;2018-04-16 22:57:56:429
-2.434;-9.351;0.46;-2.532;-9.465;0.408;0.098;0.115;0.052;-0.028;0.042;0.012;10.1;-8.9;21.8;49.62;3218;2018-04-16 22:57:56:439
-2.434;-9.351;0.46;-2.532;-9.465;0.408;0.098;0.115;0.052;-0.028;0.042;0.012;10.1;-8.9;21.8;49.62;3228;2018-04-16 22:57:56:449
-2.392;-9.395;0.499;-2.532;-9.466;0.404;0.14;0.071;0.096;-0.012;0.067;0.004;10.1;-8.9;21.8;49.62;3238;2018-04-16 22:57:56:459
-2.391;-9.419;0.491;-2.531;-9.466;0.401;0.14;0.047;0.09;-0.009;0.093;-0.001;10.1;-8.8;21.7;49.62;3248;2018-04-16 22:57:56:469
-2.391;-9.419;0.491;-2.531;-9.466;0.401;0.14;0.047;0.09;-0.009;0.093;-0.001;10.1;-8.8;21.7;49.62;3257;2018-04-16 22:57:56:478
-2.406;-9.463;0.42;-2.528;-9.467;0.395;0.143;0.018;0.073;-0.004;0.121;-0.011;10.1;-8.8;21.8;49.62;3268;2018-04-16 22:57:56:489
-2.406;-9.463;0.42;-2.528;-9.467;0.395;0.143;0.018;0.073;-0.004;0.121;-0.011;10.1;-8.8;21.8;49.62;3278;2018-04-16 22:57:56:499
-2.482;-9.428;0.383;-2.526;-9.468;0.391;0.044;0.039;-0.008;0.007;0.079;-0.017;10.1;-8.8;21.8;49.62;3288;2018-04-16 22:57:56:509
-2.482;-9.428;0.383;-2.526;-9.468;0.391;0.044;0.039;-0.008;0.007;0.079;-0.017;10.1;-8.8;21.8;49.62;3298;2018-04-16 22:57:56:519
-2.562;-9.373;0.369;-2.524;-9.468;0.39;-0.038;0.095;-0.022;0.009;0.029;-0.013;10.0;-8.8;21.9;49.62;3308;2018-04-16 22:57:56:529
-2.574;-9.358;0.366;-2.524;-9.468;0.39;-0.05;0.111;-0.024;0.001;0.013;-0.009;10.0;-8.7;22.0;49.62;3319;2018-04-16 22:57:56:540
-2.574;-9.358;0.366;-2.524;-9.468;0.39;-0.05;0.111;-0.024;0.001;0.013;-0.009;10.0;-8.7;22.0;49.62;3328;2018-04-16 22:57:56:549
-2.549;-9.357;0.403;-2.525;-9.468;0.388;-0.023;0.111;0.015;-0.015;-0.026;0.002;10.0;-8.8;22.0;49.62;3338;2018-04-16 22:57:56:559
-2.519;-9.355;0.435;-2.525;-9.468;0.388;-0.023;0.111;0.015;-0.016;-0.038;0.005;10.0;-8.8;22.0;49.62;3348;2018-04-16 22:57:56:569
-2.519;-9.355;0.435;-2.526;-9.468;0.388;0.022;0.108;0.059;-0.016;-0.038;0.005;10.0;-8.7;22.0;49.62;3358;2018-04-16 22:57:56:579
-2.492;-9.378;0.458;-2.527;-9.467;0.389;0.035;0.089;0.069;-0.012;-0.051;0.012;10.0;-8.7;22.1;49.62;3367;2018-04-16 22:57:56:588
-2.492;-9.378;0.458;-2.527;-9.467;0.389;0.035;0.089;0.069;-0.01;-0.044;0.011;10.0;-8.7;22.1;49.62;3378;2018-04-16 22:57:56:599
-2.455;-9.421;0.453;-2.528;-9.467;0.391;0.073;0.046;0.062;-0.01;-0.044;0.011;9.9;-8.7;22.0;49.62;3388;2018-04-16 22:57:56:609
-2.455;-9.421;0.453;-2.528;-9.467;0.391;0.073;0.046;0.062;-0.004;-0.044;0.01;9.9;-8.7;22.0;49.62;3398;2018-04-16 22:57:56:619
-2.422;-9.431;0.448;-2.528;-9.467;0.394;0.106;0.036;0.053;0.006;-0.043;0.005;9.9;-8.6;22.1;49.62;3408;2018-04-16 22:57:56:629
-2.434;-9.464;0.407;-2.528;-9.467;0.394;0.106;0.036;0.053;0.005;-0.042;0.0;9.9;-8.6;22.1;49.62;3418;2018-04-16 22:57:56:639
-2.434;-9.464;0.407;-2.526;-9.467;0.397;0.063;0.002;0.019;0.0;-0.039;-0.002;9.9;-8.6;22.1;49.62;3428;2018-04-16 22:57:56:649
-2.491;-9.459;0.403;-2.526;-9.467;0.397;0.063;0.002;0.019;0.0;-0.039;-0.002;9.9;-8.6;22.1;49.62;3438;2018-04-16 22:57:56:659
-2.516;-9.448;0.387;-2.525;-9.468;0.399;0.008;0.02;-0.013;-0.001;-0.044;-0.004;9.9;-8.6;22.2;49.62;3448;2018-04-16 22:57:56:669
-2.516;-9.448;0.387;-2.525;-9.468;0.399;0.008;0.02;-0.013;-0.001;-0.044;-0.004;9.9;-8.6;22.2;49.62;3458;2018-04-16 22:57:56:679
-2.579;-9.438;0.36;-2.524;-9.468;0.401;-0.055;0.03;-0.041;-0.006;-0.066;-0.005;9.9;-8.6;22.3;49.62;3468;2018-04-16 22:57:56:689
-2.579;-9.438;0.36;-2.524;-9.468;0.401;-0.055;0.03;-0.041;-0.006;-0.066;-0.005;9.9;-8.6;22.3;49.62;3478;2018-04-16 22:57:56:699
-2.586;-9.389;0.369;-2.524;-9.468;0.401;-0.062;0.079;-0.032;-0.021;-0.067;0.001;9.9;-8.6;22.3;49.66;3488;2018-04-16 22:57:56:709
-2.586;-9.389;0.369;-2.524;-9.468;0.401;-0.062;0.079;-0.032;-0.028;-0.07;0.007;9.9;-8.6;22.3;49.66;3498;2018-04-16 22:57:56:719
-2.534;-9.424;0.353;-2.525;-9.468;0.398;-0.009;0.044;-0.045;-0.032;-0.072;0.007;9.9;-8.5;22.2;49.66;3508;2018-04-16 22:57:56:729
-2.534;-9.424;0.353;-2.525;-9.468;0.398;-0.009;0.044;-0.045;-0.032;-0.072;0.007;9.9;-8.5;22.2;49.66;3518;2018-04-16 22:57:56:739
-2.462;-9.457;0.373;-2.526;-9.467;0.397;0.064;0.01;-0.023;-0.024;-0.094;0.012;9.9;-8.5;22.3;49.66;3528;2018-04-16 22:57:56:749
-2.462;-9.457;0.373;-2.526;-9.467;0.397;0.064;0.01;-0.023;-0.023;-0.084;0.006;9.9;-8.5;22.3;49.66;3538;2018-04-16 22:57:56:759
-2.425;-9.415;0.493;-2.526;-9.468;0.396;0.1;0.052;0.097;-0.023;-0.084;0.006;9.9;-8.5;22.3;49.66;3548;2018-04-16 22:57:56:769
-2.425;-9.415;0.493;-2.526;-9.468;0.396;0.1;0.052;0.097;-0.022;-0.009;-0.004;9.9;-8.5;22.3;49.66;3557;2018-04-16 22:57:56:778
-2.459;-9.363;0.52;-2.524;-9.468;0.393;0.065;0.106;0.127;-0.02;0.023;-0.009;9.9;-8.5;22.3;49.66;3568;2018-04-16 22:57:56:789
-2.459;-9.363;0.52;-2.524;-9.468;0.393;0.065;0.106;0.127;-0.02;0.023;-0.009;9.9;-8.5;22.3;49.66;3578;2018-04-16 22:57:56:799
-2.558;-9.33;0.485;-2.522;-9.469;0.39;-0.037;0.139;0.094;0.004;0.079;-0.018;9.9;-8.5;22.3;49.66;3588;2018-04-16 22:57:56:809
-2.558;-9.33;0.485;-2.522;-9.469;0.39;-0.037;0.139;0.094;0.004;0.079;-0.018;9.9;-8.5;22.3;49.66;3598;2018-04-16 22:57:56:819
-2.567;-9.396;0.412;-2.52;-9.469;0.389;-0.046;0.073;0.023;0.017;0.105;-0.015;10.0;-8.5;22.3;49.66;3608;2018-04-16 22:57:56:829
-2.567;-9.396;0.412;-2.52;-9.469;0.389;-0.046;0.073;0.023;0.02;0.101;-0.009;10.0;-8.5;22.3;49.66;3618;2018-04-16 22:57:56:839
-2.541;-9.462;0.324;-2.52;-9.469;0.387;-0.021;0.007;-0.063;0.022;0.082;-0.002;10.0;-8.5;22.3;49.66;3628;2018-04-16 22:57:56:849
-2.541;-9.462;0.324;-2.52;-9.469;0.387;-0.021;0.007;-0.063;0.022;0.082;-0.002;10.0;-8.5;22.3;49.66;3638;2018-04-16 22:57:56:859
-2.527;-9.451;0.281;-2.521;-9.469;0.391;0.018;0.019;-0.125;0.031;0.032;0.002;10.1;-8.5;22.4;49.66;3648;2018-04-16 22:57:56:869
-2.494;-9.459;0.245;-2.521;-9.469;0.391;0.018;0.019;-0.125;0.038;-0.029;0.002;10.1;-8.5;22.4;49.66;3658;2018-04-16 22:57:56:879
-2.473;-9.452;0.245;-2.521;-9.469;0.399;0.048;0.016;-0.153;0.04;-0.062;0.004;10.1;-8.5;22.4;49.66;3668;2018-04-16 22:57:56:889
-2.473;-9.452;0.245;-2.521;-9.469;0.399;0.048;0.016;-0.153;0.032;-0.084;-0.001;10.1;-8.5;22.4;49.66;3678;2018-04-16 22:57:56:899
-2.433;-9.45;0.315;-2.52;-9.469;0.407;0.087;0.019;-0.092;0.021;-0.083;-0.001;10.1;-8.5;22.6;49.66;3688;2018-04-16 22:57:56:909
-2.433;-9.45;0.315;-2.52;-9.469;0.407;0.087;0.019;-0.092;0.021;-0.083;-0.001;10.1;-8.5;22.6;49.66;3698;2018-04-16 22:57:56:919
-2.444;-9.506;0.312;-2.517;-9.469;0.41;0.073;-0.037;-0.097;-0.002;-0.061;-0.005;10.1;-8.6;22.6;49.66;3708;2018-04-16 22:57:56:929
-2.444;-9.506;0.312;-2.517;-9.469;0.41;0.073;-0.037;-0.097;-0.009;-0.05;-0.005;10.1;-8.6;22.6;49.66;3718;2018-04-16 22:57:56:939
-2.49;-9.471;0.305;-2.515;-9.47;0.41;0.025;-0.002;-0.105;-0.009;-0.05;-0.005;10.1;-8.6;22.5;49.66;3727;2018-04-16 22:57:56:948
-2.49;-9.471;0.305;-2.515;-9.47;0.41;0.025;-0.002;-0.105;0.002;-0.044;-0.006;10.1;-8.6;22.5;49.66;3738;2018-04-16 22:57:56:959
-2.497;-9.415;0.283;-2.514;-9.47;0.412;0.013;0.012;-0.098;0.009;-0.044;-0.006;10.1;-8.7;22.6;49.66;3747;2018-04-16 22:57:56:968
-2.497;-9.415;0.283;-2.514;-9.47;0.412;0.013;0.012;-0.098;0.009;-0.034;-0.005;10.1;-8.7;22.6;49.66;3758;2018-04-16 22:57:56:979
-2.464;-9.371;0.257;-2.513;-9.47;0.414;0.049;0.099;-0.156;0.007;-0.026;-0.005;10.1;-8.7;22.5;49.66;3768;2018-04-16 22:57:56:989
-2.464;-9.371;0.257;-2.513;-9.47;0.414;0.049;0.099;-0.156;0.001;-0.012;-0.005;10.1;-8.7;22.5;49.66;3778;2018-04-16 22:57:56:999
-2.446;-9.378;0.284;-2.511;-9.471;0.41;0.065;0.093;-0.127;0.001;-0.012;-0.005;10.1;-8.7;22.6;49.66;3788;2018-04-16 22:57:57:009
-2.446;-9.378;0.284;-2.511;-9.471;0.41;0.065;0.093;-0.127;-0.029;0.028;-0.009;10.1;-8.7;22.6;49.66;3798;2018-04-16 22:57:57:019
-2.479;-9.409;0.332;-2.509;-9.472;0.401;0.03;0.063;-0.069;-0.04;0.05;-0.012;10.2;-8.7;22.6;49.95;3808;2018-04-16 22:57:57:029
-2.479;-9.409;0.332;-2.509;-9.472;0.401;0.03;0.063;-0.069;-0.049;0.06;-0.012;10.2;-8.7;22.6;49.95;3818;2018-04-16 22:57:57:039
-2.529;-9.434;0.39;-2.507;-9.473;0.388;-0.022;0.038;0.003;-0.049;0.071;-0.012;10.2;-8.7;22.5;49.95;3828;2018-04-16 22:57:57:049
-2.529;-9.434;0.39;-2.507;-9.473;0.388;-0.022;0.038;0.003;-0.049;0.071;-0.012;10.2;-8.7;22.5;49.95;3839;2018-04-16 22:57:57:060
-2.582;-9.448;0.413;-2.507;-9.473;0.376;-0.076;0.026;0.037;-0.042;0.078;-0.007;10.2;-8.7;22.7;49.95;3848;2018-04-16 22:57:57:069
-2.582;-9.448;0.413;-2.507;-9.473;0.376;-0.076;0.026;0.037;-0.042;0.078;-0.007;10.2;-8.7;22.7;49.95;3858;2018-04-16 22:57:57:079
-2.564;-9.378;0.414;-2.507;-9.474;0.365;-0.057;0.096;0.049;-0.04;0.075;-0.001;10.2;-8.7;22.6;49.95;3868;2018-04-16 22:57:57:089
-2.564;-9.378;0.414;-2.507;-9.474;0.365;-0.057;0.096;0.049;-0.04;0.075;-0.001;10.2;-8.7;22.6;49.95;3878;2018-04-16 22:57:57:099
-2.539;-9.346;0.399;-2.509;-9.474;0.355;-0.03;0.128;0.044;-0.04;0.057;0.002;10.2;-8.7;22.7;49.95;3888;2018-04-16 22:57:57:109
-2.531;-9.386;0.415;-2.509;-9.474;0.355;-0.03;0.128;0.044;-0.035;0.031;0.004;10.2;-8.7;22.7;49.95;3898;2018-04-16 22:57:57:119
-2.531;-9.386;0.415;-2.51;-9.474;0.347;0.0;0.047;0.078;-0.035;0.031;0.004;10.2;-8.6;22.7;49.95;3908;2018-04-16 22:57:57:129
-2.501;-9.465;0.43;-2.51;-9.474;0.347;0.0;0.047;0.078;-0.028;0.006;0.001;10.2;-8.6;22.7;49.95;3919;2018-04-16 22:57:57:140
-2.46;-9.47;0.413;-2.51;-9.474;0.344;0.05;0.004;0.069;-0.02;-0.012;0.002;10.2;-8.6;22.8;49.95;3928;2018-04-16 22:57:57:149
-2.466;-9.475;0.379;-2.51;-9.474;0.344;0.05;0.004;0.069;0.004;-0.057;-0.002;10.2;-8.6;22.8;49.95;3938;2018-04-16 22:57:57:159
-2.466;-9.475;0.379;-2.508;-9.474;0.348;0.032;-0.007;0.028;0.004;-0.057;-0.002;10.2;-8.6;22.7;49.95;3948;2018-04-16 22:57:57:169
-2.491;-9.458;0.385;-2.508;-9.474;0.348;0.032;-0.007;0.028;0.021;-0.099;-0.005;10.2;-8.6;22.7;49.95;3958;2018-04-16 22:57:57:179
-2.496;-9.418;0.371;-2.506;-9.474;0.357;0.01;0.057;0.014;0.023;-0.104;-0.005;10.2;-8.7;22.6;49.95;3968;2018-04-16 22:57:57:189
-2.496;-9.418;0.371;-2.506;-9.474;0.357;0.01;0.057;0.014;0.016;-0.092;-0.009;10.2;-8.7;22.6;49.95;3978;2018-04-16 22:57:57:199
-2.51;-9.346;0.382;-2.504;-9.475;0.365;-0.006;0.129;0.017;0.016;-0.092;-0.009;10.2;-8.7;22.5;49.95;3988;2018-04-16 22:57:57:209
-2.51;-9.346;0.382;-2.504;-9.475;0.365;-0.006;0.129;0.017;0.002;-0.057;-0.007;10.2;-8.7;22.5;49.95;3999;2018-04-16 22:57:57:220
-2.553;-9.394;0.376;-2.503;-9.475;0.366;-0.05;0.081;0.01;-0.01;-0.031;-0.005;10.2;-8.7;22.5;49.95;4008;2018-04-16 22:57:57:229
-2.561;-9.448;0.371;-2.503;-9.475;0.366;-0.05;0.081;0.01;-0.022;0.013;-0.006;10.2;-8.7;22.5;49.95;4018;2018-04-16 22:57:57:239
-2.561;-9.448;0.371;-2.503;-9.475;0.361;-0.046;0.005;-0.006;-0.022;0.013;-0.006;10.2;-8.6;22.6;49.95;4028;2018-04-16 22:57:57:249
-2.516;-9.461;0.351;-2.503;-9.475;0.361;-0.046;0.005;-0.006;-0.026;0.033;0.001;10.2;-8.6;22.6;49.95;4039;2018-04-16 22:57:57:260
-2.484;-9.444;0.305;-2.503;-9.475;0.354;0.019;0.031;-0.049;-0.024;0.039;0.0;10.2;-8.7;22.6;49.95;4048;2018-04-16 22:57:57:269
-2.484;-9.444;0.305;-2.503;-9.475;0.354;0.019;0.031;-0.049;-0.024;0.039;0.0;10.2;-8.7;22.6;49.95;4058;2018-04-16 22:57:57:279
-2.423;-9.407;0.257;-2.504;-9.475;0.349;0.081;0.068;-0.092;-0.017;0.022;0.005;10.2;-8.7;22.6;49.95;4068;2018-04-16 22:57:57:289
-2.365;-9.374;0.305;-2.504;-9.475;0.349;0.081;0.068;-0.092;-0.009;-0.005;0.007;10.2;-8.7;22.6;49.95;4078;2018-04-16 22:57:57:299
-2.365;-9.374;0.305;-2.504;-9.475;0.347;0.141;0.11;-0.007;-0.015;-0.005;0.004;10.2;-8.6;22.6;49.95;4088;2018-04-16 22:57:57:309
-2.349;-9.371;0.382;-2.504;-9.475;0.347;0.141;0.11;-0.007;-0.043;0.027;-0.004;10.2;-8.6;22.6;49.95;4098;2018-04-16 22:57:57:319
-2.349;-9.371;0.382;-2.502;-9.476;0.337;0.158;0.102;0.085;-0.043;0.027;-0.004;10.2;-8.6;22.5;49.95;4108;2018-04-16 22:57:57:329
-2.395;-9.415;0.448;-2.502;-9.476;0.337;0.158;0.102;0.085;-0.077;0.094;-0.006;10.2;-8.6;22.5;49.95;4118;2018-04-16 22:57:57:339
-2.464;-9.456;0.429;-2.5;-9.477;0.319;0.105;0.062;0.129;-0.075;0.101;-0.013;10.1;-8.7;22.5;50.4;4128;2018-04-16 22:57:57:349
-2.464;-9.456;0.429;-2.5;-9.477;0.319;0.105;0.062;0.129;-0.054;0.082;-0.015;10.1;-8.7;22.5;50.4;4138;2018-04-16 22:57:57:359
-2.575;-9.458;0.396;-2.498;-9.478;0.31;-0.077;0.02;0.086;-0.054;0.082;-0.015;10.1;-8.7;22.5;50.4;4148;2018-04-16 22:57:57:369
-2.575;-9.458;0.396;-2.498;-9.478;0.31;-0.077;0.02;0.086;0.011;-0.007;-0.011;10.1;-8.7;22.5;50.4;4158;2018-04-16 22:57:57:379
-2.601;-9.401;0.364;-2.498;-9.478;0.317;-0.104;0.077;0.047;0.038;-0.046;-0.007;10.1;-8.7;22.5;50.4;4168;2018-04-16 22:57:57:389
-2.601;-9.401;0.364;-2.498;-9.478;0.317;-0.104;0.077;0.047;0.038;-0.046;-0.007;10.1;-8.7;22.5;50.4;4178;2018-04-16 22:57:57:399
-2.507;-9.413;0.294;-2.498;-9.478;0.329;-0.009;0.065;-0.034;0.04;-0.089;0.005;10.0;-8.8;22.5;50.4;4188;2018-04-16 22:57:57:409
-2.507;-9.413;0.294;-2.498;-9.478;0.329;-0.009;0.065;-0.034;0.04;-0.089;0.005;10.0;-8.8;22.5;50.4;4198;2018-04-16 22:57:57:419
-2.423;-9.431;0.296;-2.498;-9.477;0.334;0.075;0.047;-0.039;0.002;-0.082;0.007;10.0;-8.9;22.3;50.4;4208;2018-04-16 22:57:57:429
-2.423;-9.431;0.296;-2.498;-9.477;0.334;0.075;0.047;-0.039;0.002;-0.082;0.007;10.0;-8.9;22.3;50.4;4220;2018-04-16 22:57:57:441
-2.43;-9.412;0.327;-2.498;-9.477;0.335;0.068;0.066;-0.008;-0.015;-0.071;0.006;9.9;-8.9;22.3;50.4;4228;2018-04-16 22:57:57:449
-2.494;-9.404;0.39;-2.498;-9.477;0.335;0.068;0.066;-0.008;-0.018;-0.049;0.004;9.9;-8.9;22.3;50.4;4238;2018-04-16 22:57:57:459
-2.494;-9.404;0.39;-2.498;-9.477;0.335;-0.005;0.088;0.05;-0.006;-0.038;-0.001;9.9;-9.0;22.3;50.4;4248;2018-04-16 22:57:57:469
-2.55;-9.366;0.387;-2.498;-9.477;0.335;-0.005;0.088;0.05;0.021;-0.021;0.001;9.9;-9.0;22.3;50.4;4258;2018-04-16 22:57:57:479
-2.55;-9.366;0.387;-2.499;-9.477;0.34;-0.052;0.119;0.048;0.021;-0.021;0.001;9.8;-9.0;22.3;50.4;4268;2018-04-16 22:57:57:489
-2.527;-9.361;0.338;-2.499;-9.477;0.34;-0.052;0.119;0.048;0.042;-0.002;0.002;9.8;-9.0;22.3;50.4;4278;2018-04-16 22:57:57:499
-2.527;-9.361;0.338;-2.5;-9.476;0.348;0.015;0.079;-0.063;0.049;0.011;0.005;9.7;-9.0;22.3;50.4;4288;2018-04-16 22:57:57:509
-2.421;-9.431;0.261;-2.5;-9.476;0.348;0.015;0.079;-0.063;0.04;0.037;0.004;9.7;-9.0;22.3;50.4;4298;2018-04-16 22:57:57:519
-2.38;-9.439;0.255;-2.5;-9.476;0.353;0.121;0.037;-0.098;0.04;0.037;0.004;9.7;-9.0;22.3;50.4;4307;2018-04-16 22:57:57:528
-2.38;-9.439;0.255;-2.5;-9.476;0.353;0.121;0.037;-0.098;0.02;0.067;0.006;9.7;-9.0;22.3;50.4;4318;2018-04-16 22:57:57:539
-2.33;-9.442;0.263;-2.501;-9.476;0.35;0.171;0.034;-0.087;0.005;0.082;0.006;9.5;-9.1;22.2;50.4;4328;2018-04-16 22:57:57:549
-2.33;-9.442;0.263;-2.501;-9.476;0.35;0.171;0.034;-0.087;0.005;0.082;0.006;9.5;-9.1;22.2;50.4;4338;2018-04-16 22:57:57:559
-2.354;-9.454;0.283;-2.5;-9.476;0.343;0.147;0.023;-0.06;-0.011;0.094;0.002;9.5;-9.1;22.1;50.4;4348;2018-04-16 22:57:57:569
-2.354;-9.454;0.283;-2.5;-9.476;0.343;0.147;0.023;-0.06;-0.01;0.095;-0.005;9.5;-9.1;22.1;50.4;4358;2018-04-16 22:57:57:579
-2.473;-9.465;0.338;-2.499;-9.477;0.337;0.026;0.011;0.001;-0.006;0.094;-0.005;9.4;-9.1;22.2;50.4;4368;2018-04-16 22:57:57:589
-2.473;-9.465;0.338;-2.499;-9.477;0.337;0.026;0.011;0.001;-0.006;0.094;-0.005;9.4;-9.1;22.2;50.4;4378;2018-04-16 22:57:57:599
-2.523;-9.384;0.366;-2.499;-9.477;0.332;-0.024;0.093;0.034;0.004;0.089;-0.006;9.4;-9.1;22.2;50.4;4388;2018-04-16 22:57:57:609
-2.523;-9.384;0.366;-2.499;-9.477;0.332;-0.024;0.093;0.034;0.004;0.089;-0.006;9.4;-9.1;22.2;50.4;4397;2018-04-16 22:57:57:618
-2.538;-9.378;0.339;-2.5;-9.477;0.33;-0.037;0.099;0.009;0.009;0.068;0.004;9.4;-9.2;22.3;50.4;4408;2018-04-16 22:57:57:629
-2.538;-9.378;0.339;-2.5;-9.477;0.33;-0.037;0.099;0.009;0.009;0.068;0.004;9.4;-9.2;22.3;50.4;4418;2018-04-16 22:57:57:639
-2.467;-9.434;0.312;-2.502;-9.476;0.33;0.035;0.042;-0.017;0.011;0.039;0.007;9.3;-9.1;22.3;50.4;4427;2018-04-16 22:57:57:648
-2.467;-9.434;0.312;-2.502;-9.476;0.33;0.035;0.042;-0.017;0.011;0.039;0.007;9.3;-9.1;22.3;50.4;4438;2018-04-16 22:57:57:659
-2.407;-9.469;0.28;-2.503;-9.476;0.331;0.095;0.007;-0.051;0.013;-0.004;0.01;9.2;-9.2;22.2;50.57;4448;2018-04-16 22:57:57:669
-2.392;-9.48;0.291;-2.503;-9.476;0.331;0.095;0.007;-0.051;0.009;-0.033;0.006;9.2;-9.2;22.2;50.57;4458;2018-04-16 22:57:57:679
-2.392;-9.48;0.291;-2.503;-9.476;0.334;0.098;0.014;-0.039;0.009;-0.033;0.006;9.2;-9.2;22.3;50.57;4468;2018-04-16 22:57:57:689
-2.447;-9.432;0.303;-2.503;-9.476;0.334;0.098;0.014;-0.039;-0.002;-0.049;0.004;9.2;-9.2;22.3;50.57;4477;2018-04-16 22:57:57:698
-2.479;-9.383;0.336;-2.503;-9.476;0.335;0.024;0.093;0.002;-0.012;-0.051;0.002;9.2;-9.2;22.2;50.57;4488;2018-04-16 22:57:57:709
-2.479;-9.383;0.336;-2.503;-9.476;0.335;0.024;0.093;0.002;-0.02;-0.045;0.007;9.2;-9.2;22.2;50.57;4498;2018-04-16 22:57:57:719
-2.537;-9.365;0.391;-2.504;-9.476;0.334;-0.033;0.111;0.058;-0.02;-0.045;0.007;9.2;-9.1;22.4;50.57;4508;2018-04-16 22:57:57:729
-2.537;-9.365;0.391;-2.504;-9.476;0.334;-0.033;0.111;0.058;-0.018;-0.026;0.007;9.2;-9.1;22.4;50.57;4518;2018-04-16 22:57:57:739
-2.534;-9.396;0.432;-2.506;-9.475;0.332;-0.028;0.079;0.1;-0.02;-0.013;0.01;9.2;-9.0;22.5;50.57;4528;2018-04-16 22:57:57:749
-2.534;-9.396;0.432;-2.506;-9.475;0.332;-0.028;0.079;0.1;-0.02;-0.013;0.01;9.2;-9.0;22.5;50.57;4538;2018-04-16 22:57:57:759
-2.506;-9.412;0.381;-2.508;-9.475;0.33;0.003;0.063;0.05;-0.009;0.001;0.011;9.2;-9.0;22.6;50.57;4549;2018-04-16 22:57:57:770
-2.506;-9.412;0.381;-2.508;-9.475;0.33;0.003;0.063;0.05;-0.009;0.001;0.011;9.2;-9.0;22.6;50.57;4558;2018-04-16 22:57:57:779
-2.483;-9.458;0.4;-2.51;-9.474;0.331;0.027;0.016;0.069;-0.001;-0.01;0.007;9.2;-8.9;22.7;50.57;4568;2018-04-16 22:57:57:789
-2.483;-9.458;0.4;-2.51;-9.474;0.331;0.027;0.016;0.069;-0.001;-0.01;0.007;9.2;-8.9;22.7;50.57;4577;2018-04-16 22:57:57:798
-2.465;-9.468;0.396;-2.51;-9.474;0.331;0.045;0.006;0.065;-0.002;-0.002;0.002;9.2;-8.9;22.7;50.57;4588;2018-04-16 22:57:57:809
-2.465;-9.468;0.396;-2.51;-9.474;0.331;0.045;0.006;0.065;-0.002;-0.002;0.002;9.2;-8.9;22.7;50.57;4598;2018-04-16 22:57:57:819
-2.5;-9.445;0.436;-2.509;-9.474;0.331;0.01;0.029;0.105;-0.005;0.013;-0.005;9.2;-8.9;22.7;50.57;4608;2018-04-16 22:57:57:829
-2.497;-9.425;0.444;-2.509;-9.474;0.331;0.012;0.05;0.113;-0.001;0.029;-0.006;9.2;-8.9;22.8;50.57;4619;2018-04-16 22:57:57:840
-2.523;-9.412;0.453;-2.509;-9.475;0.33;-0.015;0.063;0.123;-0.002;0.045;-0.007;9.2;-8.9;22.8;50.57;4628;2018-04-16 22:57:57:849
-2.523;-9.412;0.453;-2.509;-9.475;0.33;-0.015;0.063;0.123;-0.002;0.045;-0.007;9.2;-8.9;22.8;50.57;4637;2018-04-16 22:57:57:858
-2.541;-9.365;0.425;-2.508;-9.475;0.327;-0.033;0.11;0.098;-0.001;0.065;-0.004;9.2;-9.0;22.8;50.57;4648;2018-04-16 22:57:57:869
-2.541;-9.365;0.425;-2.508;-9.475;0.327;-0.033;0.11;0.098;-0.001;0.066;-0.001;9.2;-9.0;22.8;50.57;4658;2018-04-16 22:57:57:879
-2.512;-9.382;0.347;-2.509;-9.475;0.325;-0.002;0.093;0.022;0.004;0.045;0.0;9.2;-9.0;22.7;50.57;4668;2018-04-16 22:57:57:889
-2.472;-9.396;0.332;-2.509;-9.475;0.325;-0.002;0.093;0.022;0.004;0.021;0.005;9.2;-9.0;22.7;50.57;4678;2018-04-16 22:57:57:899
-2.472;-9.396;0.332;-2.51;-9.474;0.325;0.042;0.056;-0.004;0.001;-0.005;0.004;9.2;-9.0;22.8;50.57;4689;2018-04-16 22:57:57:910
-2.431;-9.432;0.336;-2.51;-9.474;0.325;0.042;0.056;-0.004;-0.004;-0.023;0.004;9.2;-9.0;22.8;50.57;4698;2018-04-16 22:57:57:919
-2.446;-9.437;0.385;-2.51;-9.474;0.325;0.064;0.038;0.06;-0.012;-0.032;0.005;9.2;-9.0;22.9;50.57;4709;2018-04-16 22:57:57:930
-2.446;-9.437;0.385;-2.51;-9.474;0.325;0.064;0.038;0.06;-0.012;-0.032;0.005;9.2;-9.0;22.9;50.57;4718;2018-04-16 22:57:57:939
-2.456;-9.398;0.436;-2.51;-9.474;0.323;0.054;0.076;0.113;-0.029;-0.023;0.005;9.2;-9.1;22.9;50.57;4728;2018-04-16 22:57:57:949
-2.484;-9.389;0.447;-2.51;-9.474;0.323;0.054;0.076;0.113;-0.024;-0.022;0.006;9.2;-9.1;22.9;50.57;4739;2018-04-16 22:57:57:960
-2.484;-9.389;0.447;-2.511;-9.474;0.322;0.019;0.066;0.121;-0.011;-0.028;0.007;9.2;-9.0;22.9;50.57;4748;2018-04-16 22:57:57:969
-2.502;-9.407;0.424;-2.511;-9.474;0.322;0.019;0.066;0.121;-0.011;-0.028;0.007;9.2;-9.0;22.9;50.57;4758;2018-04-16 22:57:57:979
-2.502;-9.407;0.424;-2.511;-9.474;0.322;0.019;0.066;0.121;0.015;-0.044;0.01;9.2;-9.0;22.9;50.57;4768;2018-04-16 22:57:57:989
-2.474;-9.428;0.426;-2.513;-9.474;0.327;0.038;0.045;0.099;0.015;-0.044;0.01;9.2;-9.0;22.9;50.57;4778;2018-04-16 22:57:57:999
-2.444;-9.415;0.385;-2.513;-9.473;0.333;0.069;0.058;0.053;0.018;-0.029;0.009;9.2;-9.0;23.0;50.32;4788;2018-04-16 22:57:58:009
-2.442;-9.421;0.339;-2.513;-9.473;0.333;0.069;0.058;0.053;0.009;-0.027;0.006;9.2;-9.0;23.0;50.32;4798;2018-04-16 22:57:58:019
-2.442;-9.421;0.339;-2.514;-9.473;0.336;0.067;0.042;-0.008;0.01;-0.032;0.006;9.2;-9.0;22.9;50.32;4808;2018-04-16 22:57:58:029
-2.453;-9.439;0.296;-2.514;-9.473;0.336;0.067;0.042;-0.008;0.007;-0.044;0.006;9.2;-9.0;22.9;50.32;4817;2018-04-16 22:57:58:038
-2.453;-9.439;0.296;-2.514;-9.473;0.339;0.049;0.036;-0.018;0.006;-0.06;0.002;9.2;-9.1;22.9;50.32;4828;2018-04-16 22:57:58:049
-2.474;-9.414;0.324;-2.514;-9.473;0.341;0.039;0.059;-0.017;0.005;-0.07;0.004;9.2;-9.1;22.8;50.32;4839;2018-04-16 22:57:58:060
-2.474;-9.414;0.324;-2.514;-9.473;0.341;0.039;0.059;-0.017;0.001;-0.068;0.005;9.2;-9.1;22.8;50.32;4848;2018-04-16 22:57:58:069
-2.526;-9.378;0.376;-2.514;-9.473;0.345;-0.012;0.094;0.031;0.001;-0.068;0.005;9.2;-9.1;22.7;50.32;4858;2018-04-16 22:57:58:079
-2.526;-9.378;0.376;-2.514;-9.473;0.345;-0.012;0.094;0.031;0.0;-0.05;0.006;9.2;-9.1;22.7;50.32;4868;2018-04-16 22:57:58:089
-2.513;-9.448;0.37;-2.516;-9.472;0.348;0.003;0.025;0.022;0.0;-0.05;0.006;9.2;-9.1;22.8;50.32;4878;2018-04-16 22:57:58:099
-2.513;-9.448;0.37;-2.516;-9.472;0.348;0.003;0.025;0.022;0.012;-0.04;0.01;9.2;-9.1;22.8;50.32;4888;2018-04-16 22:57:58:109
-2.459;-9.458;0.391;-2.517;-9.472;0.352;0.058;0.013;0.039;0.012;-0.04;0.01;9.2;-9.1;22.9;50.32;4898;2018-04-16 22:57:58:119
-2.459;-9.458;0.391;-2.517;-9.472;0.352;0.058;0.013;0.039;0.01;-0.001;0.006;9.2;-9.1;22.9;50.32;4908;2018-04-16 22:57:58:129
-2.466;-9.395;0.378;-2.518;-9.471;0.353;0.051;0.077;0.025;0.006;0.027;0.005;9.2;-9.1;22.8;50.32;4918;2018-04-16 22:57:58:139
-2.466;-9.395;0.378;-2.518;-9.471;0.353;0.051;0.077;0.025;0.006;0.027;0.005;9.2;-9.1;22.8;50.32;4928;2018-04-16 22:57:58:149
-2.488;-9.38;0.378;-2.518;-9.471;0.352;0.03;0.091;0.026;0.002;0.056;0.002;9.2;-9.1;22.8;50.32;4938;2018-04-16 22:57:58:159
-2.565;-9.363;0.359;-2.519;-9.471;0.349;-0.047;0.109;0.01;0.007;0.083;-0.002;9.2;-9.0;22.9;50.32;4948;2018-04-16 22:57:58:169
-2.565;-9.363;0.359;-2.519;-9.471;0.349;-0.047;0.109;0.01;0.007;0.083;-0.002;9.2;-9.0;22.9;50.32;4958;2018-04-16 22:57:58:179
-2.551;-9.384;0.36;-2.52;-9.471;0.349;-0.031;0.087;0.011;0.022;0.072;0.002;9.2;-8.9;23.0;50.32;4969;2018-04-16 22:57:58:190
-2.518;-9.414;0.328;-2.521;-9.471;0.35;0.004;0.057;-0.022;0.024;0.061;0.01;9.2;-8.9;22.9;50.32;4979;2018-04-16 22:57:58:200
-2.518;-9.414;0.328;-2.521;-9.471;0.35;0.004;0.057;-0.022;0.018;0.054;0.009;9.2;-8.9;22.9;50.32;4988;2018-04-16 22:57:58:209
-2.429;-9.428;0.302;-2.523;-9.47;0.35;0.094;0.042;-0.048;0.018;0.054;0.009;9.2;-8.9;22.9;50.32;4998;2018-04-16 22:57:58:219
-2.406;-9.431;0.308;-2.523;-9.47;0.35;0.117;0.039;-0.042;0.01;0.034;0.01;9.2;-8.9;23.0;50.32;5008;2018-04-16 22:57:58:229
-2.406;-9.431;0.308;-2.523;-9.47;0.35;0.117;0.039;-0.042;0.01;0.034;0.01;9.2;-8.9;23.0;50.32;5018;2018-04-16 22:57:58:239
-2.456;-9.413;0.334;-2.523;-9.47;0.35;0.067;0.057;-0.016;0.007;0.001;0.002;9.3;-8.8;22.9;50.32;5028;2018-04-16 22:57:58:249
-2.456;-9.413;0.334;-2.523;-9.47;0.35;0.067;0.057;-0.016;0.011;-0.01;0.0;9.3;-8.8;22.9;50.32;5038;2018-04-16 22:57:58:259
-2.508;-9.409;0.376;-2.523;-9.47;0.353;0.015;0.061;0.023;0.009;-0.016;-0.002;9.2;-8.8;23.0;50.32;5048;2018-04-16 22:57:58:269
-2.547;-9.42;0.373;-2.523;-9.47;0.354;-0.025;0.05;0.019;0.011;-0.013;-0.002;9.2;-8.8;23.0;50.32;5058;2018-04-16 22:57:58:279
-2.555;-9.445;0.35;-2.523;-9.47;0.355;-0.032;0.025;-0.006;0.009;-0.017;-0.001;9.3;-8.8;23.0;50.32;5068;2018-04-16 22:57:58:289
-2.555;-9.445;0.35;-2.523;-9.47;0.355;-0.032;0.025;-0.006;0.009;-0.017;-0.001;9.3;-8.8;23.0;50.32;5078;2018-04-16 22:57:58:299
-2.568;-9.419;0.309;-2.524;-9.47;0.358;-0.044;0.051;-0.049;0.013;-0.031;0.006;9.3;-8.8;23.2;50.32;5087;2018-04-16 22:57:58:308
-2.545;-9.412;0.281;-2.524;-9.47;0.358;-0.044;0.051;-0.049;0.012;-0.046;0.009;9.3;-8.8;23.2;50.32;5098;2018-04-16 22:57:58:319
-2.545;-9.412;0.281;-2.526;-9.469;0.363;0.01;0.074;-0.067;0.012;-0.064;0.011;9.3;-8.8;23.3;49.67;5108;2018-04-16 22:57:58:329
-2.484;-9.397;0.298;-2.526;-9.469;0.363;0.01;0.074;-0.067;0.01;-0.072;0.012;9.3;-8.8;23.3;49.67;5118;2018-04-16 22:57:58:339
-2.484;-9.397;0.298;-2.527;-9.468;0.366;0.077;0.065;-0.049;-0.001;-0.065;0.013;9.3;-8.7;23.3;49.67;5129;2018-04-16 22:57:58:350
-2.447;-9.382;0.358;-2.527;-9.468;0.366;0.077;0.065;-0.049;-0.012;-0.046;0.013;9.3;-8.7;23.3;49.67;5138;2018-04-16 22:57:58:359
-2.449;-9.361;0.411;-2.528;-9.468;0.364;0.094;0.114;0.021;-0.032;-0.005;0.005;9.3;-8.7;23.3;49.67;5148;2018-04-16 22:57:58:369
-2.449;-9.361;0.411;-2.528;-9.468;0.364;0.094;0.114;0.021;-0.032;-0.005;0.005;9.3;-8.7;23.3;49.67;5158;2018-04-16 22:57:58:379
-2.528;-9.388;0.472;-2.529;-9.468;0.358;0.0;0.081;0.114;-0.033;0.027;0.001;9.3;-8.7;23.3;49.67;5168;2018-04-16 22:57:58:389
-2.593;-9.397;0.508;-2.529;-9.468;0.358;0.0;0.081;0.114;-0.022;0.046;-0.001;9.3;-8.7;23.3;49.67;5178;2018-04-16 22:57:58:399
-2.593;-9.397;0.508;-2.53;-9.468;0.354;-0.075;0.076;0.161;-0.009;0.061;-0.001;9.3;-8.6;23.3;49.67;5188;2018-04-16 22:57:58:409
-2.619;-9.401;0.5;-2.53;-9.468;0.353;-0.089;0.067;0.147;0.006;0.076;0.0;9.4;-8.6;23.2;49.67;5198;2018-04-16 22:57:58:419
-2.619;-9.401;0.5;-2.53;-9.468;0.353;-0.089;0.067;0.147;0.006;0.076;0.0;9.4;-8.6;23.2;49.67;5208;2018-04-16 22:57:58:429
-2.565;-9.414;0.405;-2.533;-9.467;0.354;-0.032;0.053;0.051;0.027;0.082;0.01;9.4;-8.5;23.2;49.67;5218;2018-04-16 22:57:58:439
-2.507;-9.428;0.344;-2.533;-9.467;0.354;-0.032;0.053;0.051;0.029;0.065;0.012;9.4;-8.5;23.2;49.67;5228;2018-04-16 22:57:58:449
-2.507;-9.428;0.344;-2.536;-9.466;0.356;0.046;0.043;-0.035;0.026;0.038;0.016;9.5;-8.5;23.2;49.67;5238;2018-04-16 22:57:58:459
-2.454;-9.41;0.327;-2.536;-9.466;0.356;0.046;0.043;-0.035;0.023;0.012;0.017;9.5;-8.5;23.2;49.67;5248;2018-04-16 22:57:58:469
-2.454;-9.41;0.327;-2.538;-9.466;0.359;0.094;0.082;-0.026;0.016;-0.012;0.015;9.5;-8.5;23.1;49.67;5257;2018-04-16 22:57:58:478
-2.449;-9.4;0.385;-2.538;-9.466;0.359;0.094;0.082;-0.026;0.005;-0.032;0.013;9.5;-8.5;23.1;49.67;5268;2018-04-16 22:57:58:489
-2.474;-9.409;0.421;-2.54;-9.465;0.363;0.066;0.056;0.059;0.006;-0.031;0.012;9.6;-8.5;23.0;49.67;5278;2018-04-16 22:57:58:499
-2.474;-9.409;0.421;-2.54;-9.465;0.363;0.066;0.056;0.059;0.002;-0.029;0.01;9.6;-8.5;23.0;49.67;5288;2018-04-16 22:57:58:509
-2.539;-9.437;0.469;-2.541;-9.465;0.366;0.002;0.028;0.103;0.015;-0.027;0.007;9.6;-8.4;23.0;49.67;5299;2018-04-16 22:57:58:520
-2.539;-9.437;0.469;-2.541;-9.465;0.366;0.002;0.028;0.103;0.015;-0.027;0.007;9.6;-8.4;23.0;49.67;5308;2018-04-16 22:57:58:529
-2.585;-9.471;0.432;-2.543;-9.464;0.374;-0.042;-0.008;0.058;0.04;-0.034;0.007;9.7;-8.3;23.0;49.67;5317;2018-04-16 22:57:58:538
-2.585;-9.471;0.432;-2.543;-9.464;0.374;-0.042;-0.008;0.058;0.04;-0.034;0.007;9.7;-8.3;23.0;49.67;5328;2018-04-16 22:57:58:549
-2.605;-9.497;0.32;-2.544;-9.463;0.389;-0.061;-0.034;-0.069;0.073;-0.072;0.01;9.7;-8.3;23.1;49.67;5338;2018-04-16 22:57:58:559
-2.605;-9.497;0.32;-2.544;-9.463;0.389;-0.061;-0.034;-0.069;0.076;-0.099;0.011;9.7;-8.3;23.1;49.67;5348;2018-04-16 22:57:58:569
-2.616;-9.491;0.201;-2.546;-9.462;0.407;-0.07;-0.029;-0.206;0.076;-0.117;0.012;9.8;-8.3;23.2;49.67;5358;2018-04-16 22:57:58:579
-2.616;-9.491;0.201;-2.546;-9.462;0.407;-0.07;-0.029;-0.206;0.061;-0.131;0.012;9.8;-8.3;23.2;49.67;5368;2018-04-16 22:57:58:589
-2.679;-9.43;0.205;-2.548;-9.46;0.421;-0.131;0.031;-0.216;0.061;-0.131;0.012;9.8;-8.2;23.1;49.67;5377;2018-04-16 22:57:58:598
-2.679;-9.43;0.205;-2.548;-9.46;0.421;-0.131;0.031;-0.216;0.01;-0.108;0.01;9.8;-8.2;23.1;49.67;5388;2018-04-16 22:57:58:609
-2.764;-9.334;0.285;-2.552;-9.459;0.424;-0.212;0.126;-0.139;-0.012;-0.077;0.015;9.9;-8.1;22.9;49.67;5398;2018-04-16 22:57:58:619
-2.793;-9.334;0.328;-2.552;-9.459;0.424;-0.212;0.126;-0.139;-0.031;-0.04;0.022;9.9;-8.1;22.9;49.67;5408;2018-04-16 22:57:58:629
-2.793;-9.334;0.328;-2.559;-9.458;0.417;-0.245;0.119;-0.08;-0.031;-0.04;0.022;9.9;-8.1;22.8;49.67;5418;2018-04-16 22:57:58:639
-2.781;-9.401;0.352;-2.559;-9.458;0.417;-0.245;0.119;-0.08;-0.033;0.021;0.032;9.9;-8.1;22.8;49.52;5428;2018-04-16 22:57:58:649
-2.743;-9.427;0.342;-2.567;-9.456;0.41;-0.195;0.041;-0.065;-0.022;0.043;0.034;10.0;-8.1;22.7;49.52;5438;2018-04-16 22:57:58:659
-2.743;-9.427;0.342;-2.572;-9.455;0.407;-0.141;0.039;-0.093;-0.009;0.07;0.038;10.0;-8.0;22.8;49.52;5448;2018-04-16 22:57:58:669
-2.682;-9.413;0.284;-2.572;-9.455;0.407;-0.141;0.039;-0.093;-0.009;0.07;0.038;10.0;-8.0;22.8;49.52;5458;2018-04-16 22:57:58:679
-2.682;-9.413;0.284;-2.58;-9.453;0.402;-0.067;0.061;-0.158;0.013;0.105;0.031;10.1;-7.9;22.8;49.52;5468;2018-04-16 22:57:58:689
-2.638;-9.361;0.214;-2.58;-9.453;0.402;-0.067;0.061;-0.158;0.018;0.117;0.029;10.1;-7.9;22.8;49.52;5478;2018-04-16 22:57:58:699
-2.613;-9.284;0.099;-2.587;-9.451;0.397;-0.034;0.148;-0.265;0.018;0.122;0.027;10.1;-8.0;22.8;49.52;5488;2018-04-16 22:57:58:709
-2.613;-9.284;0.099;-2.587;-9.451;0.397;-0.034;0.148;-0.265;0.027;0.106;0.021;10.1;-8.0;22.8;49.52;5499;2018-04-16 22:57:58:720
-2.658;-9.357;0.053;-2.592;-9.45;0.394;-0.066;0.093;-0.342;0.037;0.087;0.017;10.1;-8.0;22.8;49.52;5508;2018-04-16 22:57:58:729
-2.698;-9.412;0.047;-2.592;-9.45;0.394;-0.066;0.093;-0.342;0.04;0.072;0.018;10.1;-8.0;22.8;49.52;5518;2018-04-16 22:57:58:739
-2.698;-9.412;0.047;-2.597;-9.448;0.395;-0.097;0.002;-0.348;0.042;0.065;0.021;10.1;-8.0;22.9;49.52;5528;2018-04-16 22:57:58:749
-2.659;-9.483;0.056;-2.6;-9.448;0.394;-0.059;-0.036;-0.338;0.042;0.065;0.021;10.1;-8.0;22.9;49.52;5539;2018-04-16 22:57:58:760
-2.659;-9.483;0.056;-2.6;-9.448;0.394;-0.059;-0.036;-0.338;0.011;0.1;0.026;10.1;-8.0;22.9;49.52;5548;2018-04-16 22:57:58:769
-2.413;-9.384;0.043;-2.604;-9.447;0.386;0.191;0.063;-0.343;-0.012;0.136;0.02;10.2;-8.0;22.9;49.52;5558;2018-04-16 22:57:58:779
-2.413;-9.384;0.043;-2.604;-9.447;0.386;0.191;0.063;-0.343;-0.012;0.136;0.02;10.2;-8.0;22.9;49.52;5568;2018-04-16 22:57:58:789
-2.321;-9.3;0.116;-2.604;-9.447;0.371;0.283;0.147;-0.255;-0.028;0.151;0.0;10.2;-8.0;23.0;49.52;5579;2018-04-16 22:57:58:800
-2.303;-9.249;0.207;-2.604;-9.447;0.371;0.283;0.147;-0.255;-0.042;0.171;-0.01;10.2;-8.0;23.0;49.52;5587;2018-04-16 22:57:58:808
-2.303;-9.249;0.207;-2.6;-9.449;0.351;0.269;0.237;-0.12;-0.051;0.199;-0.023;10.2;-8.1;22.8;49.52;5598;2018-04-16 22:57:58:819
-2.351;-9.213;0.271;-2.6;-9.449;0.351;0.269;0.237;-0.12;-0.061;0.219;-0.029;10.2;-8.1;22.8;49.52;5608;2018-04-16 22:57:58:829
-2.444;-9.202;0.298;-2.595;-9.451;0.329;0.196;0.254;-0.062;-0.034;0.209;-0.037;10.1;-8.1;22.9;49.52;5618;2018-04-16 22:57:58:839
-2.444;-9.202;0.298;-2.595;-9.451;0.329;0.196;0.254;-0.062;-0.034;0.209;-0.037;10.1;-8.1;22.9;49.52;5628;2018-04-16 22:57:58:849
-2.586;-9.205;0.338;-2.587;-9.454;0.318;0.001;0.249;0.019;0.011;0.164;-0.053;10.1;-8.1;22.9;49.52;5640;2018-04-16 22:57:58:861
-2.586;-9.205;0.338;-2.587;-9.454;0.318;0.001;0.249;0.019;0.042;0.13;-0.062;10.1;-8.1;22.9;49.52;5648;2018-04-16 22:57:58:869
-2.819;-9.239;0.335;-2.578;-9.456;0.324;-0.241;0.217;0.012;0.042;0.13;-0.062;10.1;-8.1;22.8;49.52;5658;2018-04-16 22:57:58:879
-2.819;-9.239;0.335;-2.578;-9.456;0.324;-0.241;0.217;0.012;0.093;0.072;-0.062;10.1;-8.1;22.8;49.52;5668;2018-04-16 22:57:58:889
-2.889;-9.322;0.262;-2.57;-9.458;0.338;-0.318;0.136;-0.076;0.093;0.072;-0.062;10.1;-8.1;22.9;49.52;5678;2018-04-16 22:57:58:899
-2.889;-9.322;0.262;-2.57;-9.458;0.338;-0.318;0.136;-0.076;0.111;0.022;-0.057;10.1;-8.1;22.9;49.52;5688;2018-04-16 22:57:58:909
-2.939;-9.48;0.129;-2.563;-9.459;0.359;-0.376;-0.021;-0.23;0.127;-0.024;-0.053;10.0;-8.1;22.9;49.52;5698;2018-04-16 22:57:58:919
-2.939;-9.48;0.129;-2.563;-9.459;0.359;-0.376;-0.021;-0.23;0.127;-0.024;-0.053;10.0;-8.1;22.9;49.52;5708;2018-04-16 22:57:58:929
-2.947;-9.511;0.084;-2.559;-9.459;0.374;-0.388;-0.052;-0.291;0.138;-0.053;-0.054;10.1;-8.1;22.9;49.52;5718;2018-04-16 22:57:58:939
-2.855;-9.378;-0.022;-2.552;-9.459;0.421;-0.303;0.081;-0.443;0.226;-0.22;-0.046;10.0;-8.1;22.9;49.52;5728;2018-04-16 22:57:58:949
-2.801;-9.212;-0.016;-2.552;-9.459;0.421;-0.303;0.081;-0.443;0.226;-0.224;-0.049;10.0;-8.1;22.9;49.52;5738;2018-04-16 22:57:58:959
-2.801;-9.212;-0.016;-2.543;-9.46;0.468;-0.278;0.273;-0.462;0.226;-0.224;-0.049;9.9;-8.1;22.9;50.67;5748;2018-04-16 22:57:58:969
-2.85;-9.146;0.043;-2.543;-9.46;0.468;-0.278;0.273;-0.462;0.14;-0.099;-0.065;9.9;-8.1;22.9;50.67;5758;2018-04-16 22:57:58:979
-2.85;-9.146;0.043;-2.535;-9.461;0.483;-0.368;0.282;-0.454;0.051;0.035;-0.065;9.9;-8.1;22.8;50.67;5767;2018-04-16 22:57:58:988
-2.959;-9.278;-0.007;-2.535;-9.461;0.483;-0.368;0.282;-0.454;-0.062;0.219;-0.05;9.9;-8.1;22.8;50.67;5778;2018-04-16 22:57:58:999
-2.959;-9.278;-0.007;-2.533;-9.463;0.449;-0.496;0.059;-0.43;-0.104;0.29;-0.042;9.9;-8.1;22.9;50.67;5788;2018-04-16 22:57:59:009
-3.095;-9.476;0.047;-2.533;-9.463;0.449;-0.496;0.059;-0.43;-0.115;0.323;-0.029;9.9;-8.1;22.9;50.67;5798;2018-04-16 22:57:59:019
-3.095;-9.476;0.047;-2.535;-9.464;0.409;-0.615;0.013;-0.277;-0.1;0.341;-0.021;9.9;-8.1;22.9;50.67;5808;2018-04-16 22:57:59:029
-3.181;-9.37;0.23;-2.539;-9.464;0.392;-0.642;0.094;-0.162;-0.081;0.364;-0.006;9.9;-8.1;22.8;50.67;5818;2018-04-16 22:57:59:039
-3.296;-9.143;0.4;-2.539;-9.464;0.392;-0.642;0.094;-0.162;-0.067;0.437;0.01;9.9;-8.1;22.8;50.67;5828;2018-04-16 22:57:59:049
-3.296;-9.143;0.4;-2.552;-9.462;0.356;-0.779;0.467;0.088;-0.067;0.437;0.01;9.8;-8.1;22.8;50.67;5838;2018-04-16 22:57:59:059
-3.328;-8.728;0.426;-2.552;-9.462;0.356;-0.779;0.467;0.088;-0.108;0.577;0.054;9.8;-8.1;22.8;50.67;5848;2018-04-16 22:57:59:069
-3.29;-8.587;0.34;-2.576;-9.457;0.301;-0.713;0.871;0.039;-0.153;0.65;0.099;9.7;-8.1;22.8;50.67;5859;2018-04-16 22:57:59:080
-3.29;-8.587;0.34;-2.576;-9.457;0.301;-0.713;0.871;0.039;-0.227;0.682;0.188;9.7;-8.1;22.8;50.67;5868;2018-04-16 22:57:59:089
-3.056;-8.752;0.154;-2.619;-9.448;0.223;-0.437;0.696;-0.068;-0.227;0.682;0.188;9.7;-8.1;22.9;50.67;5878;2018-04-16 22:57:59:099
-3.056;-8.752;0.154;-2.619;-9.448;0.223;-0.437;0.696;-0.068;-0.291;0.596;0.27;9.7;-8.1;22.9;50.67;5887;2018-04-16 22:57:59:108
-2.838;-9.456;0.056;-2.68;-9.432;0.135;-0.158;-0.024;-0.079;-0.321;0.49;0.334;9.6;-8.1;23.0;50.67;5898;2018-04-16 22:57:59:119
-2.838;-9.456;0.056;-2.68;-9.432;0.135;-0.158;-0.024;-0.079;-0.324;0.329;0.395;9.6;-8.1;23.0;50.67;5908;2018-04-16 22:57:59:129
-2.205;-9.931;0.043;-2.755;-9.411;0.062;0.55;-0.52;-0.019;-0.324;0.329;0.395;9.5;-8.1;22.8;50.67;5918;2018-04-16 22:57:59:139
-1.769;-10.08;0.061;-2.755;-9.411;0.062;0.55;-0.52;-0.019;-0.304;-0.071;0.431;9.5;-8.1;22.8;50.67;5928;2018-04-16 22:57:59:149
-1.769;-10.08;0.061;-2.828;-9.39;0.016;1.295;-0.722;0.059;-0.286;-0.275;0.419;9.4;-8.1;22.9;50.67;5938;2018-04-16 22:57:59:159
-1.222;-10.195;0.144;-2.828;-9.39;0.016;1.295;-0.722;0.059;-0.244;-0.557;0.363;9.4;-8.1;22.9;50.67;5948;2018-04-16 22:57:59:169
-1.222;-10.195;0.144;-2.888;-9.372;0.003;1.977;-0.904;0.179;-0.244;-0.557;0.363;9.3;-8.2;22.9;50.67;5957;2018-04-16 22:57:59:178
-0.576;-10.235;0.227;-2.888;-9.372;0.003;1.977;-0.904;0.179;-0.177;-0.816;0.293;9.3;-8.2;22.9;50.67;5968;2018-04-16 22:57:59:189
-0.576;-10.235;0.227;-2.923;-9.361;0.029;2.51;-0.898;0.325;-0.177;-0.816;0.293;9.2;-8.2;22.7;50.67;5977;2018-04-16 22:57:59:198
-0.5;-10.214;0.585;-2.923;-9.361;0.029;2.51;-0.898;0.325;-0.029;-1.126;0.115;9.2;-8.2;22.7;50.67;5988;2018-04-16 22:57:59:209
-0.5;-10.214;0.585;-2.923;-9.36;0.102;2.331;-0.821;0.69;0.066;-1.199;0.035;9.2;-8.3;22.9;50.67;5998;2018-04-16 22:57:59:219
-0.597;-10.08;0.907;-2.923;-9.36;0.102;2.331;-0.821;0.69;0.183;-1.218;-0.028;9.2;-8.3;22.9;50.67;6008;2018-04-16 22:57:59:229
-0.728;-9.718;0.922;-2.891;-9.368;0.222;2.212;-0.471;0.728;0.305;-1.191;-0.092;9.3;-8.4;22.8;50.67;6018;2018-04-16 22:57:59:239
-0.919;-9.455;0.84;-2.891;-9.368;0.222;2.212;-0.471;0.728;0.417;-1.118;-0.15;9.3;-8.4;22.8;50.67;6028;2018-04-16 22:57:59:249
-0.919;-9.455;0.84;-2.834;-9.381;0.373;1.806;0.005;0.408;0.417;-1.118;-0.15;9.4;-8.4;22.8;50.67;6038;2018-04-16 22:57:59:259
-1.214;-9.151;0.617;-2.834;-9.381;0.373;1.806;0.005;0.408;0.558;-0.894;-0.231;9.4;-8.4;22.8;50.67;6048;2018-04-16 22:57:59:269
-1.214;-9.151;0.617;-2.777;-9.391;0.523;1.459;0.453;-0.059;0.558;-0.894;-0.231;9.4;-8.5;22.8;50.67;6058;2018-04-16 22:57:59:279
-1.48;-8.854;0.336;-2.777;-9.391;0.523;1.459;0.453;-0.059;0.534;-0.465;-0.25;9.4;-8.5;22.8;50.67;6068;2018-04-16 22:57:59:289
-1.48;-8.854;0.336;-2.72;-9.4;0.641;0.958;0.397;-0.414;0.534;-0.465;-0.25;9.5;-8.5;22.8;50.67;6078;2018-04-16 22:57:59:299
-2.016;-9.22;0.101;-2.72;-9.4;0.641;0.958;0.397;-0.414;0.508;-0.027;-0.281;9.5;-8.5;22.8;51.15;6088;2018-04-16 22:57:59:309
-2.248;-9.426;-0.075;-2.665;-9.41;0.72;0.649;0.19;-0.62;0.447;0.244;-0.275;9.7;-8.5;22.8;51.15;6098;2018-04-16 22:57:59:319
-2.248;-9.426;-0.075;-2.665;-9.41;0.72;0.649;0.19;-0.62;0.336;0.517;-0.261;9.7;-8.5;22.8;51.15;6108;2018-04-16 22:57:59:329
-2.412;-9.446;-0.218;-2.625;-9.421;0.73;0.213;-0.026;-0.948;0.336;0.517;-0.261;9.9;-8.5;22.7;51.15;6118;2018-04-16 22:57:59:339
-2.495;-9.357;-0.182;-2.613;-9.426;0.707;0.118;0.069;-0.889;0.066;0.888;-0.186;9.9;-8.5;22.7;51.15;6128;2018-04-16 22:57:59:349
-2.526;-9.236;-0.029;-2.613;-9.426;0.707;0.118;0.069;-0.889;-0.06;0.936;-0.127;9.9;-8.5;22.7;51.15;6138;2018-04-16 22:57:59:359
-2.526;-9.236;-0.029;-2.601;-9.434;0.64;0.014;0.238;-0.597;-0.06;0.936;-0.127;10.1;-8.4;22.8;51.15;6148;2018-04-16 22:57:59:369
-2.713;-9.177;0.208;-2.601;-9.434;0.64;0.014;0.238;-0.597;-0.114;0.861;-0.088;10.1;-8.4;22.8;51.15;6159;2018-04-16 22:57:59:380
-2.713;-9.177;0.208;-2.6;-9.438;0.572;-0.243;0.295;-0.206;-0.116;0.786;-0.06;10.2;-8.3;22.8;51.15;6168;2018-04-16 22:57:59:389
-2.994;-9.12;0.475;-2.6;-9.438;0.572;-0.243;0.295;-0.206;-0.116;0.786;-0.06;10.2;-8.3;22.8;51.15;6178;2018-04-16 22:57:59:399
-3.206;-9.075;0.565;-2.606;-9.439;0.525;-0.6;0.364;0.04;-0.045;0.626;-0.026;10.3;-8.3;22.7;51.15;6188;2018-04-16 22:57:59:409
-3.206;-9.075;0.565;-2.606;-9.439;0.525;-0.6;0.364;0.04;-0.045;0.626;-0.026;10.3;-8.3;22.7;51.15;6198;2018-04-16 22:57:59:419
-3.424;-9.06;0.618;-2.62;-9.436;0.518;-0.804;0.376;0.099;0.137;0.428;0.012;10.4;-8.2;22.8;51.15;6208;2018-04-16 22:57:59:429
-3.424;-9.06;0.618;-2.62;-9.436;0.518;-0.804;0.376;0.099;0.228;0.353;0.032;10.4;-8.2;22.8;51.15;6218;2018-04-16 22:57:59:439
-3.202;-9.102;0.533;-2.639;-9.429;0.55;-0.563;0.327;-0.017;0.282;0.301;0.056;10.5;-8.1;22.7;51.15;6228;2018-04-16 22:57:59:449
-2.923;-9.178;0.485;-2.65;-9.425;0.568;-0.273;0.247;-0.083;0.297;0.277;0.095;10.5;-8.1;22.6;51.15;6238;2018-04-16 22:57:59:459
-2.923;-9.178;0.485;-2.65;-9.425;0.568;-0.273;0.247;-0.083;0.298;0.254;0.133;10.5;-8.1;22.6;51.15;6248;2018-04-16 22:57:59:469
-2.148;-9.272;0.455;-2.675;-9.415;0.613;0.528;0.143;-0.158;0.298;0.254;0.133;10.6;-7.9;22.7;51.15;6258;2018-04-16 22:57:59:479
-2.148;-9.272;0.455;-2.675;-9.415;0.613;0.528;0.143;-0.158;0.374;0.143;0.14;10.6;-7.9;22.7;51.15;6268;2018-04-16 22:57:59:489
-1.493;-9.469;0.421;-2.693;-9.405;0.682;1.2;-0.064;-0.261;0.454;0.055;0.136;10.6;-7.8;22.7;51.15;6279;2018-04-16 22:57:59:500
-1.493;-9.469;0.421;-2.693;-9.405;0.682;1.2;-0.064;-0.261;0.454;0.055;0.136;10.6;-7.8;22.7;51.15;6288;2018-04-16 22:57:59:509
-1.018;-9.785;0.33;-2.698;-9.394;0.799;1.68;-0.391;-0.468;0.672;-0.161;0.106;10.5;-7.6;22.6;51.15;6298;2018-04-16 22:57:59:519
-1.018;-9.785;0.33;-2.698;-9.394;0.799;1.68;-0.391;-0.468;0.672;-0.161;0.106;10.5;-7.6;22.6;51.15;6308;2018-04-16 22:57:59:529
-0.8;-10.008;0.239;-2.698;-9.387;0.885;1.899;-0.621;-0.645;0.79;-0.265;0.1;10.5;-7.5;22.6;51.15;6318;2018-04-16 22:57:59:539
-0.336;-10.59;-0.071;-2.701;-9.366;1.076;2.364;-1.224;-1.146;0.963;-0.367;0.081;10.4;-7.4;22.7;51.15;6327;2018-04-16 22:57:59:548
-0.336;-10.59;-0.071;-2.701;-9.366;1.076;2.364;-1.224;-1.146;0.963;-0.367;0.081;10.4;-7.4;22.7;51.15;6338;2018-04-16 22:57:59:559
-0.107;-10.787;-0.591;-2.692;-9.347;1.25;2.585;-1.44;-1.842;0.852;-0.032;-0.062;10.3;-7.1;22.7;51.15;6348;2018-04-16 22:57:59:569
-0.107;-10.787;-0.591;-2.692;-9.347;1.25;2.585;-1.44;-1.842;0.852;-0.032;-0.062;10.3;-7.1;22.7;51.15;6358;2018-04-16 22:57:59:579
-0.491;-10.555;-1.12;-2.668;-9.341;1.34;2.177;-1.214;-2.46;0.475;0.357;-0.177;10.2;-6.9;22.5;51.15;6368;2018-04-16 22:57:59:589
-0.491;-10.555;-1.12;-2.668;-9.341;1.34;2.177;-1.214;-2.46;0.475;0.357;-0.177;10.2;-6.9;22.5;51.15;6378;2018-04-16 22:57:59:599
-1.622;-10.618;-0.955;-2.638;-9.348;1.353;1.016;-1.271;-2.309;0.121;0.397;-0.224;10.0;-6.6;22.4;51.15;6388;2018-04-16 22:57:59:609
-1.622;-10.618;-0.955;-2.638;-9.348;1.353;1.016;-1.271;-2.309;-0.024;0.362;-0.242;10.0;-6.6;22.4;51.15;6398;2018-04-16 22:57:59:619
-2.972;-11.432;-0.236;-2.603;-9.363;1.318;-0.37;-2.07;-1.554;-0.139;0.348;-0.238;9.8;-6.4;22.4;51.21;6408;2018-04-16 22:57:59:629
-2.972;-11.432;-0.236;-2.603;-9.363;1.318;-0.37;-2.07;-1.554;-0.139;0.348;-0.238;9.8;-6.4;22.4;51.21;6418;2018-04-16 22:57:59:639
-3.652;-11.42;-0.249;-2.571;-9.379;1.265;-1.081;-2.042;-1.514;-0.197;0.277;-0.199;9.7;-6.1;22.5;51.21;6428;2018-04-16 22:57:59:649
-3.652;-11.42;-0.249;-2.571;-9.379;1.265;-1.081;-2.042;-1.514;-0.148;0.188;-0.175;9.7;-6.1;22.5;51.21;6438;2018-04-16 22:57:59:659
-3.46;-10.696;-0.646;-2.545;-9.39;1.231;-0.915;-1.306;-1.877;-0.13;0.119;-0.149;9.5;-5.9;22.4;51.21;6448;2018-04-16 22:57:59:669
-3.248;-10.384;-0.855;-2.536;-9.395;1.211;-0.712;-0.988;-2.066;-0.195;0.106;-0.125;9.4;-5.8;22.4;51.21;6458;2018-04-16 22:57:59:679
-2.907;-9.947;-0.968;-2.536;-9.395;1.211;-0.712;-0.988;-2.066;-0.33;0.155;-0.1;9.4;-5.8;22.4;51.21;6468;2018-04-16 22:57:59:689
-2.907;-9.947;-0.968;-2.524;-9.41;1.115;-0.225;-0.372;-2.027;-0.33;0.155;-0.1;9.2;-5.6;22.4;51.21;6478;2018-04-16 22:57:59:699
-2.654;-9.568;-0.745;-2.521;-9.421;1.027;-0.133;-0.147;-1.771;-0.698;0.325;-0.071;9.2;-5.5;22.4;51.21;6488;2018-04-16 22:57:59:709
-2.51;-9.305;-0.443;-2.521;-9.421;1.027;-0.133;-0.147;-1.771;-0.981;0.401;-0.059;9.2;-5.5;22.4;51.21;6498;2018-04-16 22:57:59:719
-2.51;-9.305;-0.443;-2.517;-9.444;0.807;0.019;0.207;-1.013;-1.173;0.418;-0.061;9.1;-5.3;22.4;51.21;6509;2018-04-16 22:57:59:730
-2.534;-9.214;0.178;-2.517;-9.444;0.807;0.019;0.207;-1.013;-1.173;0.418;-0.061;9.1;-5.3;22.4;51.21;6518;2018-04-16 22:57:59:739
-2.534;-9.214;0.178;-2.511;-9.465;0.529;-0.039;0.228;-0.026;-1.422;0.418;-0.067;9.0;-5.1;22.4;51.21;6528;2018-04-16 22:57:59:749
-2.732;-9.398;0.571;-2.511;-9.465;0.529;-0.039;0.228;-0.026;-1.422;0.418;-0.067;9.0;-5.1;22.4;51.21;6538;2018-04-16 22:57:59:759
-2.732;-9.398;0.571;-2.497;-9.481;0.222;-0.625;-0.039;-0.026;-1.536;0.352;-0.12;8.8;-5.1;22.2;51.21;6548;2018-04-16 22:57:59:769
-3.849;-9.683;-0.815;-2.497;-9.481;0.222;-0.625;-0.039;-0.026;-1.536;0.352;-0.12;8.8;-5.1;22.2;51.21;6557;2018-04-16 22:57:59:778
-4.662;-9.791;-1.62;-2.473;-9.489;-0.078;-2.189;-0.302;-1.542;-1.403;0.078;-0.121;8.7;-5.0;22.3;51.21;6568;2018-04-16 22:57:59:789
-5.094;-9.843;-1.343;-2.473;-9.489;-0.078;-2.189;-0.302;-1.542;-1.379;0.031;-0.09;8.7;-5.0;22.3;51.21;6579;2018-04-16 22:57:59:800
-5.094;-9.843;-1.343;-2.465;-9.486;-0.323;-2.605;-0.31;-0.709;-1.362;0.012;-0.013;8.6;-5.1;22.2;51.21;6588;2018-04-16 22:57:59:809
-4.861;-9.711;-0.111;-2.465;-9.486;-0.323;-2.605;-0.31;-0.709;-1.362;0.012;-0.013;8.6;-5.1;22.2;51.21;6598;2018-04-16 22:57:59:819
-4.861;-9.711;-0.111;-2.48;-9.47;-0.591;-1.914;-0.255;1.537;-1.372;0.26;0.105;8.5;-5.2;22.2;51.21;6608;2018-04-16 22:57:59:829
-3.875;-9.859;1.944;-2.48;-9.47;-0.591;-1.914;-0.255;1.537;-1.363;0.432;0.17;8.5;-5.2;22.2;51.21;6618;2018-04-16 22:57:59:839
-3.875;-9.859;1.944;-2.507;-9.441;-0.871;-1.003;-0.819;3.491;-1.343;0.523;0.194;8.3;-5.4;22.2;51.21;6628;2018-04-16 22:57:59:849
-3.522;-10.8;2.885;-2.507;-9.441;-0.871;-1.003;-0.819;3.491;-1.343;0.523;0.194;8.3;-5.4;22.2;51.21;6638;2018-04-16 22:57:59:859
-3.522;-10.8;2.885;-2.538;-9.402;-1.157;-0.762;-1.417;4.02;-1.319;0.801;0.261;8.1;-5.6;22.2;51.21;6649;2018-04-16 22:57:59:870
-2.856;-10.543;2.58;-2.549;-9.382;-1.287;-0.308;-1.161;3.866;-1.288;0.9;0.239;8.1;-5.6;22.2;51.21;6658;2018-04-16 22:57:59:879
-2.856;-10.543;2.58;-2.549;-9.382;-1.287;-0.308;-1.161;3.866;-1.219;0.92;0.188;7.9;-6.0;22.2;51.21;6668;2018-04-16 22:57:59:889
-2.304;-9.784;1.257;-2.554;-9.342;-1.542;0.25;-0.442;2.799;-1.219;0.92;0.188;7.9;-6.0;22.2;51.21;6678;2018-04-16 22:57:59:899
-2.152;-9.75;-0.25;-2.553;-9.323;-1.653;0.401;-0.427;1.403;-0.944;0.734;0.132;7.7;-6.4;22.2;51.21;6688;2018-04-16 22:57:59:909
-2.152;-9.75;-0.25;-2.553;-9.323;-1.653;0.401;-0.427;1.403;-0.573;0.418;0.093;7.7;-6.4;22.2;51.21;6698;2018-04-16 22:57:59:919
-2.015;-9.41;-1.682;-2.548;-9.301;-1.778;0.534;-0.109;0.096;-0.573;0.418;0.093;7.3;-7.1;22.1;51.21;6708;2018-04-16 22:57:59:929
-2.015;-9.41;-1.682;-2.548;-9.301;-1.778;0.534;-0.109;0.096;-0.28;0.425;0.005;7.3;-7.1;22.1;51.21;6718;2018-04-16 22:57:59:939
-2.468;-8.695;-0.591;-2.519;-9.295;-1.848;0.051;0.601;1.257;-0.197;0.735;-0.073;6.9;-7.9;21.9;51.1;6728;2018-04-16 22:57:59:949
-2.468;-8.695;-0.591;-2.519;-9.295;-1.848;0.051;0.601;1.257;-0.093;1.541;-0.23;6.9;-7.9;21.9;51.1;6738;2018-04-16 22:57:59:959
-2.988;-8.374;0.698;-2.418;-9.304;-1.937;-0.57;0.931;2.635;-0.093;1.541;-0.23;6.4;-8.6;21.9;51.1;6748;2018-04-16 22:57:59:969
-2.988;-8.374;0.698;-2.418;-9.304;-1.937;-0.57;0.931;2.635;0.078;2.232;-0.345;6.4;-8.6;21.9;51.1;6758;2018-04-16 22:57:59:979
-2.82;-8.302;-1.152;-2.258;-9.327;-2.018;-0.562;1.025;0.867;0.167;2.312;-0.401;6.1;-9.2;21.9;51.1;6768;2018-04-16 22:57:59:989
-2.82;-8.302;-1.152;-2.258;-9.327;-2.018;-0.562;1.025;0.867;0.199;1.883;-0.421;6.1;-9.2;21.9;51.1;6778;2018-04-16 22:57:59:999
-2.772;-8.531;-2.342;-2.111;-9.352;-2.064;-0.661;0.821;-0.278;0.199;1.883;-0.421;5.3;-9.8;21.4;51.1;6788;2018-04-16 22:58:00:009
-2.97;-8.558;-2.472;-2.111;-9.352;-2.064;-0.661;0.821;-0.278;0.122;1.192;-0.354;5.3;-9.8;21.4;51.1;6798;2018-04-16 22:58:00:019
-2.97;-8.558;-2.472;-2.022;-9.364;-2.098;-0.968;0.791;-0.182;-0.017;0.744;-0.272;4.8;-10.2;21.8;51.1;6808;2018-04-16 22:58:00:029
-2.933;-8.566;-1.703;-2.022;-9.364;-2.098;-0.968;0.791;-0.182;-0.279;0.351;-0.149;4.8;-10.2;21.8;51.1;6818;2018-04-16 22:58:00:039
-2.981;-8.553;-1.547;-1.985;-9.357;-2.164;-0.996;0.803;0.618;-0.279;0.351;-0.149;4.5;-10.6;21.7;51.1;6829;2018-04-16 22:58:00:050
-2.963;-8.605;-1.524;-1.985;-9.357;-2.164;-0.996;0.803;0.618;-0.489;0.307;-0.053;4.5;-10.6;21.7;51.1;6838;2018-04-16 22:58:00:059
-2.963;-8.605;-1.524;-1.97;-9.333;-2.278;-1.083;0.653;0.803;-0.597;0.391;-0.015;4.0;-10.8;21.3;51.1;6848;2018-04-16 22:58:00:069
-2.926;-8.671;-1.682;-1.97;-9.333;-2.278;-1.083;0.653;0.803;-0.651;0.456;0.024;4.0;-10.8;21.3;51.1;6858;2018-04-16 22:58:00:079
-2.926;-8.671;-1.682;-1.963;-9.3;-2.412;-0.735;0.529;0.42;-0.645;0.402;0.034;3.9;-11.3;21.4;51.1;6868;2018-04-16 22:58:00:089
-2.479;-8.824;-2.339;-1.963;-9.3;-2.412;-0.735;0.529;0.42;-0.645;0.402;0.034;3.9;-11.3;21.4;51.1;6878;2018-04-16 22:58:00:099
-2.479;-8.824;-2.339;-1.965;-9.27;-2.523;-0.392;0.449;0.464;-0.564;-0.013;0.01;3.6;-11.5;21.4;51.1;6888;2018-04-16 22:58:00:109
-2.03;-8.692;-1.614;-1.965;-9.27;-2.523;-0.392;0.449;0.464;-0.564;-0.013;0.01;3.6;-11.5;21.4;51.1;6898;2018-04-16 22:58:00:119
-2.03;-8.692;-1.614;-1.981;-9.249;-2.588;0.182;0.646;1.271;-0.387;-0.293;-0.007;3.3;-11.8;21.3;51.1;6908;2018-04-16 22:58:00:129
-1.687;-8.466;-1.399;-1.981;-9.249;-2.588;0.182;0.646;1.271;-0.302;-0.246;-0.031;3.3;-11.8;21.3;51.1;6918;2018-04-16 22:58:00:139
-1.474;-8.255;-1.475;-1.986;-9.236;-2.631;0.512;0.981;1.156;-0.257;-0.183;-0.034;2.8;-12.1;21.2;51.1;6928;2018-04-16 22:58:00:149
-1.474;-8.255;-1.475;-1.986;-9.236;-2.631;0.512;0.981;1.156;-0.257;-0.183;-0.034;2.8;-12.1;21.2;51.1;6938;2018-04-16 22:58:00:159
-1.154;-8.06;-1.419;-1.983;-9.228;-2.662;0.829;1.168;1.243;-0.177;-0.14;-0.06;2.4;-12.4;21.1;51.1;6949;2018-04-16 22:58:00:170
-1.154;-8.06;-1.419;-1.983;-9.228;-2.662;0.829;1.168;1.243;-0.177;-0.14;-0.06;2.4;-12.4;21.1;51.1;6959;2018-04-16 22:58:00:180
-1.008;-7.877;-1.384;-1.979;-9.228;-2.666;0.971;1.351;1.282;-0.023;-0.205;-0.081;2.0;-12.6;20.9;51.1;6968;2018-04-16 22:58:00:189
-1.008;-7.877;-1.384;-1.979;-9.228;-2.666;0.971;1.351;1.282;-0.023;-0.205;-0.081;2.0;-12.6;20.9;51.1;6979;2018-04-16 22:58:00:200
-1.492;-7.722;-1.622;-1.977;-9.234;-2.644;0.485;1.512;1.022;0.09;-0.226;-0.068;1.7;-12.7;20.8;51.1;6988;2018-04-16 22:58:00:209
-1.492;-7.722;-1.622;-1.977;-9.234;-2.644;0.485;1.512;1.022;0.114;-0.238;-0.018;1.7;-12.7;20.8;51.1;6998;2018-04-16 22:58:00:219
-2.0;-7.598;-1.875;-1.986;-9.241;-2.613;-0.014;1.643;0.738;0.117;-0.254;-0.005;1.4;-12.7;20.8;51.1;7008;2018-04-16 22:58:00:229
-2.0;-7.598;-1.875;-1.986;-9.241;-2.613;-0.014;1.643;0.738;0.117;-0.254;-0.005;1.4;-12.7;20.8;51.1;7018;2018-04-16 22:58:00:239
-2.186;-7.636;-2.389;-2.011;-9.246;-2.577;-0.174;1.609;0.187;0.12;-0.387;0.046;1.1;-12.8;20.7;51.1;7028;2018-04-16 22:58:00:249
-2.186;-7.636;-2.389;-2.011;-9.246;-2.577;-0.174;1.609;0.187;0.12;-0.387;0.046;1.1;-12.8;20.7;51.1;7038;2018-04-16 22:58:00:259
-1.809;-8.153;-3.029;-2.054;-9.246;-2.541;0.245;1.093;-0.488;0.064;-0.6;0.087;0.9;-12.9;20.6;51.21;7048;2018-04-16 22:58:00:269
-1.483;-8.793;-3.37;-2.054;-9.246;-2.541;0.245;1.093;-0.488;0.035;-0.872;0.106;0.9;-12.9;20.6;51.21;7058;2018-04-16 22:58:00:279
-1.483;-8.793;-3.37;-2.113;-9.242;-2.507;0.718;0.179;-1.083;0.035;-0.872;0.106;0.7;-12.9;20.5;51.21;7068;2018-04-16 22:58:00:289
-1.162;-9.434;-4.053;-2.113;-9.242;-2.507;0.718;0.179;-1.083;-0.021;-1.117;0.123;0.7;-12.9;20.5;51.21;7078;2018-04-16 22:58:00:299
-1.162;-9.434;-4.053;-2.193;-9.233;-2.471;1.331;-0.529;-2.098;-0.101;-1.251;0.126;0.7;-12.9;20.5;51.21;7088;2018-04-16 22:58:00:309
-0.613;-10.007;-4.762;-2.193;-9.233;-2.471;1.331;-0.529;-2.098;-0.197;-1.405;0.101;0.7;-12.9;20.5;51.21;7098;2018-04-16 22:58:00:319
-0.613;-10.007;-4.762;-2.193;-9.233;-2.471;1.331;-0.529;-2.098;-0.197;-1.405;0.101;0.7;-12.9;20.5;51.21;7108;2018-04-16 22:58:00:329
-0.559;-10.052;-4.541;-2.28;-9.218;-2.449;1.721;-0.834;-2.091;-0.266;-1.522;0.061;0.8;-13.0;20.5;51.21;7118;2018-04-16 22:58:00:339
-0.857;-9.77;-4.286;-2.342;-9.204;-2.443;1.485;-0.566;-1.842;-0.319;-1.294;-0.053;1.0;-13.0;20.6;51.21;7128;2018-04-16 22:58:00:349
-0.857;-9.77;-4.286;-2.342;-9.204;-2.443;1.485;-0.566;-1.842;-0.319;-1.294;-0.053;1.0;-13.0;20.6;51.21;7138;2018-04-16 22:58:00:359
-1.519;-9.287;-4.049;-2.338;-9.2;-2.464;0.819;-0.087;-1.585;-0.23;-0.525;-0.246;1.2;-13.1;20.5;51.21;7148;2018-04-16 22:58:00:369
-1.765;-8.985;-3.911;-2.312;-9.204;-2.473;0.547;0.218;-1.438;-0.075;-0.151;-0.332;1.3;-13.1;20.5;51.21;7159;2018-04-16 22:58:00:380
-1.964;-8.681;-3.598;-2.269;-9.217;-2.465;0.304;0.535;-1.133;0.145;0.053;-0.396;1.5;-13.1;20.5;51.21;7168;2018-04-16 22:58:00:389
-1.964;-8.681;-3.598;-2.269;-9.217;-2.465;0.304;0.535;-1.133;0.145;0.053;-0.396;1.5;-13.1;20.5;51.21;7178;2018-04-16 22:58:00:399
-2.585;-8.953;-2.891;-2.191;-9.259;-2.375;-0.393;0.306;-0.516;0.604;0.054;-0.407;1.7;-13.1;20.6;51.21;7188;2018-04-16 22:58:00:409
-2.585;-8.953;-2.891;-2.191;-9.259;-2.375;-0.393;0.306;-0.516;0.616;-0.064;-0.335;1.7;-13.1;20.6;51.21;7197;2018-04-16 22:58:00:418
-3.628;-9.459;-2.16;-2.151;-9.296;-2.264;-1.478;-0.163;0.104;0.529;-0.204;-0.243;2.0;-13.1;20.5;51.21;7208;2018-04-16 22:58:00:429
-4.486;-9.175;-1.894;-2.151;-9.296;-2.264;-1.478;-0.163;0.104;0.341;-0.282;-0.114;2.0;-13.1;20.5;51.21;7218;2018-04-16 22:58:00:439
-4.486;-9.175;-1.894;-2.148;-9.315;-2.188;-2.586;0.247;0.121;0.341;-0.282;-0.114;2.2;-13.1;20.4;51.21;7228;2018-04-16 22:58:00:449
-4.93;-9.07;-2.939;-2.148;-9.315;-2.188;-2.586;0.247;0.121;0.181;-0.246;-0.046;2.2;-13.1;20.4;51.21;7238;2018-04-16 22:58:00:459
-4.93;-9.07;-2.939;-2.158;-9.321;-2.15;-2.646;0.128;-1.133;0.181;-0.246;-0.046;2.5;-13.0;20.4;51.21;7248;2018-04-16 22:58:00:469
-3.491;-10.349;-4.462;-2.158;-9.321;-2.15;-2.646;0.128;-1.133;0.066;-0.517;0.049;2.5;-13.0;20.4;51.21;7258;2018-04-16 22:58:00:479
-3.491;-10.349;-4.462;-2.189;-9.323;-2.113;0.032;-2.057;-2.957;0.077;-0.594;0.035;2.7;-12.9;20.5;51.21;7268;2018-04-16 22:58:00:489
-0.968;-12.337;-5.42;-2.189;-9.323;-2.113;0.032;-2.057;-2.957;0.077;-0.594;0.035;2.7;-12.9;20.5;51.21;7278;2018-04-16 22:58:00:499
-0.666;-12.597;-3.391;-2.174;-9.329;-2.102;1.638;-3.458;-2.202;-0.006;0.001;-0.177;3.0;-12.8;20.4;51.21;7288;2018-04-16 22:58:00:509
-0.666;-12.597;-3.391;-2.174;-9.329;-2.102;1.638;-3.458;-2.202;0.139;0.443;-0.275;3.0;-12.8;20.4;51.21;7298;2018-04-16 22:58:00:519
-1.566;-9.969;-0.534;-2.102;-9.348;-2.089;0.536;-0.621;1.555;0.139;0.443;-0.275;3.3;-12.7;20.5;51.21;7308;2018-04-16 22:58:00:529
-2.325;-7.885;1.164;-2.102;-9.348;-2.089;0.536;-0.621;1.555;0.303;0.652;-0.329;3.3;-12.7;20.5;51.21;7319;2018-04-16 22:58:00:540
-2.325;-7.885;1.164;-2.003;-9.378;-2.054;-0.884;2.057;3.336;0.369;0.76;-0.406;3.6;-12.6;20.5;51.21;7328;2018-04-16 22:58:00:549
-3.648;-6.803;0.717;-2.003;-9.378;-2.054;-0.884;2.057;3.336;0.369;0.76;-0.406;3.6;-12.6;20.5;51.21;7338;2018-04-16 22:58:00:559
-3.648;-6.803;0.717;-1.897;-9.408;-2.017;-2.28;2.627;1.501;0.374;0.825;-0.407;3.8;-12.5;20.5;51.21;7349;2018-04-16 22:58:00:570
-4.345;-7.086;-1.836;-1.897;-9.408;-2.017;-2.28;2.627;1.501;0.287;0.662;-0.227;3.8;-12.5;20.5;51.21;7358;2018-04-16 22:58:00:579
-4.345;-7.086;-1.836;-1.856;-9.421;-1.992;-2.383;1.611;-0.056;0.211;0.472;-0.053;3.9;-12.4;20.4;51.21;7368;2018-04-16 22:58:00:589
-4.211;-8.769;-1.041;-1.856;-9.421;-1.992;-2.383;1.611;-0.056;0.211;0.472;-0.053;3.9;-12.4;20.4;51.21;7378;2018-04-16 22:58:00:599
-4.211;-8.769;-1.041;-1.903;-9.42;-1.954;-2.171;0.161;1.672;0.227;0.254;0.272;4.0;-12.3;20.5;50.74;7388;2018-04-16 22:58:00:609
-3.926;-9.47;-0.096;-1.903;-9.42;-1.954;-2.171;0.161;1.672;0.307;0.209;0.385;4.0;-12.3;20.5;50.74;7398;2018-04-16 22:58:00:619
-3.729;-9.506;-0.067;-1.978;-9.416;-1.895;-1.751;-0.09;1.827;0.307;0.209;0.385;4.0;-12.2;20.4;50.74;7408;2018-04-16 22:58:00:629
-3.627;-9.536;-0.08;-2.02;-9.414;-1.861;-1.607;-0.122;1.781;0.346;0.054;0.448;4.1;-12.1;20.3;50.74;7419;2018-04-16 22:58:00:640
-3.627;-9.536;-0.08;-2.02;-9.414;-1.861;-1.607;-0.122;1.781;0.331;-0.077;0.496;4.1;-12.1;20.3;50.74;7428;2018-04-16 22:58:00:649
-3.061;-9.428;-0.727;-2.133;-9.404;-1.783;-0.928;-0.024;1.057;0.331;-0.077;0.496;4.0;-11.9;20.3;50.74;7438;2018-04-16 22:58:00:659
-3.061;-9.428;-0.727;-2.133;-9.404;-1.783;-0.928;-0.024;1.057;0.353;-0.49;0.619;4.0;-11.9;20.3;50.74;7448;2018-04-16 22:58:00:669
-2.11;-9.475;-0.922;-2.279;-9.392;-1.662;0.169;-0.083;0.74;0.54;-1.065;0.66;4.0;-11.7;20.3;50.74;7458;2018-04-16 22:58:00:679
-2.11;-9.475;-0.922;-2.279;-9.392;-1.662;0.169;-0.083;0.74;0.54;-1.065;0.66;4.0;-11.7;20.3;50.74;7468;2018-04-16 22:58:00:689
-2.037;-9.584;0.095;-2.415;-9.387;-1.492;0.378;-0.197;1.586;0.505;-1.103;0.5;3.9;-11.5;20.2;50.74;7478;2018-04-16 22:58:00:699
-2.037;-9.584;0.095;-2.415;-9.387;-1.492;0.378;-0.197;1.586;0.417;-0.861;0.465;3.9;-11.5;20.2;50.74;7488;2018-04-16 22:58:00:709
-1.793;-9.882;0.014;-2.52;-9.378;-1.369;0.727;-0.504;1.384;0.36;-0.643;0.479;4.0;-11.2;20.2;50.74;7499;2018-04-16 22:58:00:720
-1.793;-9.882;0.014;-2.52;-9.378;-1.369;0.727;-0.504;1.384;0.345;-0.492;0.465;4.0;-11.2;20.2;50.74;7508;2018-04-16 22:58:00:729
-1.392;-9.872;0.262;-2.602;-9.37;-1.268;1.335;-0.492;1.768;0.345;-0.492;0.465;4.1;-10.9;20.1;50.74;7518;2018-04-16 22:58:00:739
-1.259;-9.796;0.753;-2.602;-9.37;-1.268;1.335;-0.492;1.768;0.409;-0.217;0.25;4.1;-10.9;20.1;50.74;7528;2018-04-16 22:58:00:749
-1.259;-9.796;0.753;-2.629;-9.376;-1.163;1.102;-0.467;1.983;0.409;-0.217;0.25;4.1;-10.7;20.2;50.74;7538;2018-04-16 22:58:00:759
-1.802;-9.948;0.735;-2.629;-9.376;-1.163;1.102;-0.467;1.983;0.505;0.054;0.031;4.1;-10.7;20.2;50.74;7548;2018-04-16 22:58:00:769
-1.736;-9.893;0.458;-2.626;-9.389;-1.059;0.83;-0.527;1.592;0.54;0.155;0.024;4.1;-10.5;20.2;50.74;7558;2018-04-16 22:58:00:779
-1.736;-9.893;0.458;-2.626;-9.389;-1.059;0.83;-0.527;1.592;0.575;0.204;0.006;4.1;-10.5;20.2;50.74;7568;2018-04-16 22:58:00:789
-1.64;-9.872;0.309;-2.61;-9.405;-0.948;0.969;-0.467;1.257;0.613;0.209;-0.053;4.1;-10.3;20.2;50.74;7580;2018-04-16 22:58:00:801
-1.824;-10.09;0.175;-2.595;-9.416;-0.883;0.77;-0.675;1.058;0.663;0.197;-0.101;4.2;-10.1;20.2;50.74;7588;2018-04-16 22:58:00:809
-1.824;-10.09;0.175;-2.595;-9.416;-0.883;0.77;-0.675;1.058;0.663;0.197;-0.101;4.2;-10.1;20.2;50.74;7598;2018-04-16 22:58:00:819
-1.772;-9.892;-0.304;-2.56;-9.437;-0.747;0.788;-0.455;0.443;0.75;0.1;-0.156;4.2;-9.8;20.1;50.74;7608;2018-04-16 22:58:00:829
-1.772;-9.892;-0.304;-2.56;-9.437;-0.747;0.788;-0.455;0.443;0.748;-0.004;-0.195;4.2;-9.8;20.1;50.74;7617;2018-04-16 22:58:00:838
-2.224;-9.875;-0.842;-2.519;-9.458;-0.607;0.295;-0.417;-0.234;0.706;-0.136;-0.21;4.2;-9.5;20.1;50.74;7627;2018-04-16 22:58:00:848
-2.224;-9.875;-0.842;-2.519;-9.458;-0.607;0.295;-0.417;-0.234;0.706;-0.136;-0.21;4.2;-9.5;20.1;50.74;7637;2018-04-16 22:58:00:858
-2.367;-9.436;-0.667;-2.489;-9.473;-0.481;0.122;0.038;-0.185;0.545;-0.425;-0.162;4.2;-9.2;20.1;50.74;7647;2018-04-16 22:58:00:868
-2.124;-9.032;-0.605;-2.489;-9.473;-0.481;0.122;0.038;-0.185;0.408;-0.577;-0.131;4.2;-9.2;20.1;50.74;7657;2018-04-16 22:58:00:878
-2.124;-9.032;-0.605;-2.468;-9.484;-0.378;0.424;0.55;-0.241;0.408;-0.577;-0.131;4.3;-8.8;20.1;50.74;7667;2018-04-16 22:58:00:888
-1.893;-8.878;-0.615;-2.468;-9.484;-0.378;0.424;0.55;-0.241;0.242;-0.659;-0.101;4.3;-8.8;20.1;50.74;7677;2018-04-16 22:58:00:898
-1.893;-8.878;-0.615;-2.453;-9.49;-0.313;0.678;0.667;-0.28;0.11;-0.705;-0.082;4.4;-8.4;20.1;50.74;7687;2018-04-16 22:58:00:908
-1.583;-8.726;-0.466;-2.453;-9.49;-0.313;0.678;0.667;-0.28;0.11;-0.705;-0.082;4.4;-8.4;20.1;50.74;7697;2018-04-16 22:58:00:918
-1.583;-8.726;-0.466;-2.443;-9.493;-0.291;0.774;0.729;-0.003;-0.123;-0.79;-0.076;4.6;-8.1;20.1;52.53;7707;2018-04-16 22:58:00:928
-1.866;-8.869;-0.03;-2.443;-9.493;-0.291;0.774;0.729;-0.003;-0.123;-0.79;-0.076;4.6;-8.1;20.1;52.53;7717;2018-04-16 22:58:00:938
-1.913;-8.99;0.158;-2.431;-9.496;-0.279;0.518;0.506;0.437;-0.156;-0.849;-0.077;4.8;-7.8;20.0;52.53;7727;2018-04-16 22:58:00:948
-1.913;-8.99;0.158;-2.431;-9.496;-0.279;0.518;0.506;0.437;-0.156;-0.849;-0.077;4.8;-7.8;20.0;52.53;7737;2018-04-16 22:58:00:958
-2.186;-9.431;0.43;-2.418;-9.501;-0.252;0.232;0.07;0.682;-0.062;-0.687;-0.076;5.0;-7.5;20.0;52.53;7748;2018-04-16 22:58:00:969
-2.186;-9.431;0.43;-2.418;-9.501;-0.252;0.232;0.07;0.682;-0.062;-0.687;-0.076;5.0;-7.5;20.0;52.53;7758;2018-04-16 22:58:00:979
-2.23;-9.714;0.559;-2.401;-9.505;-0.229;0.171;-0.209;0.788;-0.028;-0.424;-0.097;5.2;-7.3;20.1;52.53;7767;2018-04-16 22:58:00:988
-2.23;-9.714;0.559;-2.401;-9.505;-0.229;0.171;-0.209;0.788;-0.028;-0.424;-0.097;5.2;-7.3;20.1;52.53;7777;2018-04-16 22:58:00:998
-2.375;-9.681;0.672;-2.379;-9.512;-0.198;0.004;-0.169;0.87;0.098;-0.209;-0.122;5.4;-7.1;20.1;52.53;7788;2018-04-16 22:58:01:009
-2.325;-9.537;0.628;-2.368;-9.515;-0.174;0.043;-0.022;0.802;0.205;-0.138;-0.127;5.5;-7.0;20.1;52.53;7798;2018-04-16 22:58:01:019
-2.325;-9.537;0.628;-2.368;-9.515;-0.174;0.043;-0.022;0.802;0.304;-0.077;-0.138;5.5;-7.0;20.1;52.53;7808;2018-04-16 22:58:01:029
-2.109;-9.188;0.421;-2.34;-9.523;-0.104;0.231;0.335;0.525;0.304;-0.077;-0.138;5.6;-6.8;20.1;52.53;7818;2018-04-16 22:58:01:039
-2.109;-9.188;0.421;-2.34;-9.523;-0.104;0.231;0.335;0.525;0.37;0.051;-0.139;5.6;-6.8;20.1;52.53;7828;2018-04-16 22:58:01:049
-1.913;-8.909;0.357;-2.313;-9.53;-0.034;0.4;0.621;0.391;0.37;0.051;-0.139;5.8;-6.6;20.1;52.53;7838;2018-04-16 22:58:01:059
-1.913;-8.909;0.357;-2.313;-9.53;-0.034;0.4;0.621;0.391;0.365;0.175;-0.138;5.8;-6.6;20.1;52.53;7848;2018-04-16 22:58:01:069
-2.102;-8.956;0.271;-2.286;-9.536;0.029;0.184;0.581;0.241;0.382;0.204;-0.138;5.9;-6.3;20.1;52.53;7859;2018-04-16 22:58:01:080
-2.102;-8.956;0.271;-2.286;-9.536;0.029;0.184;0.581;0.241;0.425;0.195;-0.121;5.9;-6.3;20.1;52.53;7868;2018-04-16 22:58:01:089
-2.31;-9.203;0.192;-2.267;-9.54;0.108;-0.127;0.241;0.066;0.425;0.195;-0.121;6.0;-6.1;20.1;52.53;7878;2018-04-16 22:58:01:099
-2.576;-9.485;0.168;-2.267;-9.54;0.108;-0.127;0.241;0.066;0.555;0.114;-0.057;6.0;-6.1;20.1;52.53;7888;2018-04-16 22:58:01:109
-2.576;-9.485;0.168;-2.263;-9.54;0.215;-0.422;-0.022;-0.063;0.555;0.114;-0.057;6.1;-6.0;20.1;52.53;7898;2018-04-16 22:58:01:119
-2.715;-9.528;0.085;-2.263;-9.54;0.215;-0.422;-0.022;-0.063;0.673;0.071;0.022;6.1;-6.0;20.1;52.53;7907;2018-04-16 22:58:01:128
-2.715;-9.528;0.085;-2.275;-9.533;0.341;-0.423;0.041;-0.299;0.673;0.071;0.022;6.2;-5.8;20.1;52.53;7918;2018-04-16 22:58:01:139
-2.702;-9.531;-0.023;-2.275;-9.533;0.341;-0.423;0.041;-0.299;0.728;0.125;0.099;6.2;-5.8;20.1;52.53;7927;2018-04-16 22:58:01:148
-2.587;-9.461;-0.111;-2.301;-9.521;0.469;-0.286;0.061;-0.58;0.738;0.166;0.131;6.4;-5.6;20.0;52.53;7938;2018-04-16 22:58:01:159
-2.443;-9.434;-0.211;-2.319;-9.513;0.537;-0.125;0.079;-0.748;0.745;0.206;0.15;6.4;-5.4;20.0;52.53;7948;2018-04-16 22:58:01:169
-2.443;-9.434;-0.211;-2.319;-9.513;0.537;-0.125;0.079;-0.748;0.745;0.206;0.15;6.4;-5.4;20.0;52.53;7958;2018-04-16 22:58:01:179
-2.089;-9.331;-0.36;-2.355;-9.497;0.653;0.266;0.166;-1.013;0.7;0.285;0.187;6.5;-5.3;20.0;52.53;7968;2018-04-16 22:58:01:189
-1.846;-9.139;-0.389;-2.355;-9.497;0.653;0.266;0.166;-1.013;0.661;0.298;0.199;6.5;-5.3;20.0;52.53;7978;2018-04-16 22:58:01:199
-1.846;-9.139;-0.389;-2.394;-9.48;0.754;0.605;0.368;-1.166;0.641;0.228;0.204;6.5;-5.1;20.0;52.53;7988;2018-04-16 22:58:01:209
-1.687;-9.135;-0.424;-2.394;-9.48;0.754;0.605;0.368;-1.166;0.641;0.228;0.204;6.5;-5.1;20.0;52.53;7998;2018-04-16 22:58:01:219
-1.687;-9.135;-0.424;-2.429;-9.462;0.858;0.867;0.254;-1.237;0.618;0.093;0.199;6.6;-4.8;19.9;52.53;8008;2018-04-16 22:58:01:229
-1.487;-9.291;-0.318;-2.429;-9.462;0.858;0.867;0.254;-1.237;0.541;-0.032;0.2;6.6;-4.8;19.9;52.53;8018;2018-04-16 22:58:01:239
-1.487;-9.291;-0.318;-2.46;-9.446;0.947;1.031;0.105;-1.136;0.541;-0.032;0.2;6.6;-4.5;19.8;52.63;8028;2018-04-16 22:58:01:249
-1.454;-9.485;-0.008;-2.46;-9.446;0.947;1.031;0.105;-1.136;0.415;-0.128;0.205;6.6;-4.5;19.8;52.63;8038;2018-04-16 22:58:01:259
-1.524;-9.614;0.207;-2.486;-9.431;1.021;0.962;-0.183;-0.814;0.397;-0.139;0.204;6.6;-4.2;19.7;52.63;8048;2018-04-16 22:58:01:269
-1.524;-9.614;0.207;-2.486;-9.431;1.021;0.962;-0.183;-0.814;0.445;-0.111;0.182;6.6;-4.2;19.7;52.63;8058;2018-04-16 22:58:01:279
-1.593;-9.787;0.536;-2.509;-9.416;1.105;0.916;-0.372;-0.569;0.445;-0.111;0.182;6.6;-3.9;19.7;52.63;8068;2018-04-16 22:58:01:289
-1.593;-9.787;0.536;-2.509;-9.416;1.105;0.916;-0.372;-0.569;0.522;-0.017;0.153;6.6;-3.9;19.7;52.63;8078;2018-04-16 22:58:01:299
-1.623;-10.218;0.445;-2.533;-9.397;1.202;0.909;-0.821;-0.756;0.556;0.07;0.139;6.5;-3.6;19.5;52.63;8088;2018-04-16 22:58:01:309
-1.623;-10.218;0.445;-2.533;-9.397;1.202;0.909;-0.821;-0.756;0.557;0.167;0.12;6.5;-3.6;19.5;52.63;8098;2018-04-16 22:58:01:319
-1.581;-10.664;0.238;-2.558;-9.378;1.295;0.977;-1.286;-1.057;0.557;0.167;0.12;6.5;-3.2;19.6;52.63;8108;2018-04-16 22:58:01:329
-1.581;-10.664;0.238;-2.558;-9.378;1.295;0.977;-1.286;-1.057;0.497;0.211;0.111;6.5;-3.2;19.6;52.63;8118;2018-04-16 22:58:01:339
-1.063;-11.181;0.043;-2.582;-9.361;1.371;1.519;-1.82;-1.328;0.429;0.189;0.094;6.4;-2.9;19.5;52.63;8128;2018-04-16 22:58:01:349
-0.778;-11.623;0.004;-2.582;-9.361;1.371;1.519;-1.82;-1.328;0.336;0.126;0.06;6.4;-2.9;19.5;52.63;8139;2018-04-16 22:58:01:360
-0.778;-11.623;0.004;-2.591;-9.351;1.418;1.901;-2.405;-1.42;0.226;0.034;0.02;6.3;-2.5;19.3;52.63;8148;2018-04-16 22:58:01:369
-0.539;-11.862;-0.023;-2.591;-9.351;1.418;1.901;-2.405;-1.42;0.226;0.034;0.02;6.3;-2.5;19.3;52.63;8158;2018-04-16 22:58:01:379
-0.539;-11.862;-0.023;-2.577;-9.352;1.439;2.187;-2.443;-1.465;0.013;-0.253;-0.061;6.2;-2.2;19.3;52.63;8168;2018-04-16 22:58:01:389
-0.372;-11.557;0.041;-2.577;-9.352;1.439;2.187;-2.443;-1.465;-0.078;-0.447;-0.132;6.2;-2.2;19.3;52.63;8178;2018-04-16 22:58:01:399
-0.565;-11.192;0.206;-2.527;-9.365;1.445;1.962;-1.827;-1.239;-0.144;-0.64;-0.221;6.2;-1.8;19.2;52.63;8188;2018-04-16 22:58:01:409
-0.565;-11.192;0.206;-2.527;-9.365;1.445;1.962;-1.827;-1.239;-0.144;-0.64;-0.221;6.2;-1.8;19.2;52.63;8198;2018-04-16 22:58:01:419
-1.53;-10.08;0.662;-2.443;-9.387;1.443;0.913;-0.692;-0.781;-0.217;-0.812;-0.326;6.1;-1.5;19.1;52.63;8208;2018-04-16 22:58:01:429
-1.53;-10.08;0.662;-2.443;-9.387;1.443;0.913;-0.692;-0.781;-0.258;-0.659;-0.374;6.1;-1.5;19.1;52.63;8218;2018-04-16 22:58:01:439
-2.762;-9.221;0.619;-2.355;-9.414;1.416;-0.406;0.192;-0.797;-0.288;-0.564;-0.392;6.1;-1.2;19.1;52.63;8228;2018-04-16 22:58:01:449
-2.762;-9.221;0.619;-2.355;-9.414;1.416;-0.406;0.192;-0.797;-0.288;-0.564;-0.392;6.1;-1.2;19.1;52.63;8238;2018-04-16 22:58:01:459
-3.667;-9.133;0.506;-2.29;-9.442;1.33;-1.377;0.31;-0.823;-0.503;0.048;-0.389;6.1;-1.0;18.9;52.63;8248;2018-04-16 22:58:01:469
-3.667;-9.133;0.506;-2.29;-9.442;1.33;-1.377;0.31;-0.823;-0.503;0.048;-0.389;6.1;-1.0;18.9;52.63;8258;2018-04-16 22:58:01:479
-4.282;-9.178;0.65;-2.255;-9.475;1.149;-2.027;0.296;-0.499;-0.871;0.777;-0.326;6.1;-0.8;19.0;52.63;8268;2018-04-16 22:58:01:489
-4.665;-9.41;0.876;-2.255;-9.475;1.149;-2.027;0.296;-0.499;-1.048;1.079;-0.321;6.1;-0.8;19.0;52.63;8279;2018-04-16 22:58:01:500
-4.665;-9.41;0.876;-2.223;-9.511;0.881;-2.595;0.038;0.235;-1.19;1.293;-0.318;6.1;-0.7;19.1;52.63;8288;2018-04-16 22:58:01:509
-4.899;-9.464;1.477;-2.223;-9.511;0.881;-2.595;0.038;0.235;-1.19;1.293;-0.318;6.1;-0.7;19.1;52.63;8298;2018-04-16 22:58:01:519
-4.899;-9.464;1.477;-2.199;-9.541;0.559;-2.619;0.184;0.837;-1.349;1.602;-0.239;6.0;-0.5;19.1;52.63;8308;2018-04-16 22:58:01:529
-4.934;-9.307;0.836;-2.199;-9.541;0.559;-2.619;0.184;0.837;-1.35;1.565;-0.222;6.0;-0.5;19.1;52.63;8318;2018-04-16 22:58:01:539
-5.387;-9.671;0.028;-2.175;-9.559;0.239;-3.079;0.053;-0.033;-1.312;1.161;-0.138;5.9;-0.5;19.2;52.63;8329;2018-04-16 22:58:01:550
-5.387;-9.671;0.028;-2.169;-9.563;0.108;-3.286;-0.247;-0.22;-1.312;1.161;-0.138;5.8;-0.5;19.2;52.63;8338;2018-04-16 22:58:01:559
-5.285;-10.011;-0.043;-2.169;-9.563;0.108;-3.286;-0.247;-0.22;-1.279;0.485;0.039;5.8;-0.5;19.2;52.17;8348;2018-04-16 22:58:01:569
-5.285;-10.011;-0.043;-2.185;-9.559;-0.156;-2.463;-0.396;0.46;-1.396;0.117;0.145;5.6;-0.5;19.1;52.17;8358;2018-04-16 22:58:01:579
-4.296;-9.78;0.681;-2.185;-9.559;-0.156;-2.463;-0.396;0.46;-1.396;0.117;0.145;5.6;-0.5;19.1;52.17;8368;2018-04-16 22:58:01:589
-4.296;-9.78;0.681;-2.218;-9.542;-0.454;-1.958;-0.105;1.562;-1.613;0.222;0.182;5.4;-0.6;19.1;52.17;8378;2018-04-16 22:58:01:599
-4.313;-9.689;1.489;-2.218;-9.542;-0.454;-1.958;-0.105;1.562;-1.735;0.429;0.222;5.4;-0.6;19.1;52.17;8388;2018-04-16 22:58:01:609
-4.313;-9.689;1.489;-2.26;-9.508;-0.813;-2.002;-0.221;2.435;-1.824;0.717;0.31;5.1;-0.9;19.2;52.17;8398;2018-04-16 22:58:01:619
-4.268;-9.784;1.802;-2.26;-9.508;-0.813;-2.002;-0.221;2.435;-1.824;0.717;0.31;5.1;-0.9;19.2;52.17;8409;2018-04-16 22:58:01:630
-4.268;-9.784;1.802;-2.306;-9.456;-1.196;-2.048;-0.591;3.233;-1.798;0.918;0.342;4.8;-1.2;19.2;52.17;8418;2018-04-16 22:58:01:639
-4.209;-10.019;1.974;-2.306;-9.456;-1.196;-2.048;-0.591;3.233;-1.798;0.918;0.342;4.8;-1.2;19.2;52.17;8428;2018-04-16 22:58:01:649
-3.402;-9.88;0.445;-2.329;-9.423;-1.395;-1.596;-0.46;3.003;-1.675;1.013;0.364;4.7;-1.4;19.2;52.17;8438;2018-04-16 22:58:01:659
-3.402;-9.88;0.445;-2.366;-9.363;-1.704;-0.647;-0.521;1.061;-1.367;0.85;0.33;4.2;-2.0;19.3;52.17;8447;2018-04-16 22:58:01:668
-2.093;-9.513;-0.988;-2.366;-9.363;-1.704;-0.647;-0.521;1.061;-1.367;0.85;0.33;4.2;-2.0;19.3;52.17;8457;2018-04-16 22:58:01:678
-2.093;-9.513;-0.988;-2.413;-9.316;-1.887;1.064;0.055;1.278;-0.815;0.089;0.305;3.3;-3.4;19.2;52.17;8468;2018-04-16 22:58:01:689
-0.891;-9.163;0.897;-2.413;-9.316;-1.887;1.064;0.055;1.278;-0.456;-0.097;0.173;3.3;-3.4;19.2;52.17;8478;2018-04-16 22:58:01:699
-0.891;-9.163;0.897;-2.417;-9.31;-1.909;2.456;0.162;3.426;-0.011;0.087;0.007;2.9;-3.7;19.7;52.17;8488;2018-04-16 22:58:01:709
0.05;-9.792;0.256;-2.417;-9.31;-1.909;2.456;0.162;3.426;0.354;1.18;-0.324;2.9;-3.7;19.7;52.17;8498;2018-04-16 22:58:01:719
-0.095;-9.852;0.002;-2.287;-9.347;-1.89;2.243;-0.573;1.916;0.28;2.138;-0.467;2.8;-4.7;19.8;52.17;8508;2018-04-16 22:58:01:729
-0.095;-9.852;0.002;-2.287;-9.347;-1.89;2.243;-0.573;1.916;0.28;2.138;-0.467;2.8;-4.7;19.8;52.17;8518;2018-04-16 22:58:01:739
-0.885;-9.635;-0.96;-2.056;-9.386;-1.961;1.171;-0.249;1.001;0.187;3.045;-0.615;2.0;-4.5;19.7;52.17;8528;2018-04-16 22:58:01:749
-1.652;-9.376;-1.975;-2.056;-9.386;-1.961;1.171;-0.249;1.001;0.213;2.99;-0.635;2.0;-4.5;19.7;52.17;8537;2018-04-16 22:58:01:758
-1.652;-9.376;-1.975;-1.827;-9.42;-2.025;0.026;0.166;-0.055;0.228;2.501;-0.618;1.4;-4.7;19.2;52.17;8548;2018-04-16 22:58:01:769
-2.066;-9.258;-2.128;-1.827;-9.42;-2.025;0.026;0.166;-0.055;0.238;1.808;-0.604;1.4;-4.7;19.2;52.17;8558;2018-04-16 22:58:01:779
-2.066;-9.258;-2.128;-1.656;-9.448;-2.039;-0.829;0.105;-0.403;0.193;1.21;-0.607;0.7;-5.1;19.3;52.17;8568;2018-04-16 22:58:01:789
-2.71;-9.359;-2.693;-1.656;-9.448;-2.039;-0.829;0.105;-0.403;-0.049;0.585;-0.53;0.7;-5.1;19.3;52.17;8578;2018-04-16 22:58:01:799
-2.71;-9.359;-2.693;-1.656;-9.448;-2.039;-0.829;0.105;-0.403;-0.049;0.585;-0.53;0.7;-5.1;19.3;52.17;8588;2018-04-16 22:58:01:809
-2.683;-9.154;-2.486;-1.554;-9.455;-2.089;-1.129;0.301;-0.398;-0.268;0.341;-0.47;-0.1;-5.5;19.2;52.17;8598;2018-04-16 22:58:01:819
-3.071;-8.566;-2.034;-1.496;-9.44;-2.195;-1.574;0.874;0.161;-0.611;-0.055;-0.312;-0.1;-5.8;19.2;52.17;8608;2018-04-16 22:58:01:829
-3.071;-8.566;-2.034;-1.496;-9.44;-2.195;-1.574;0.874;0.161;-0.611;-0.055;-0.312;-0.1;-5.8;19.2;52.17;8618;2018-04-16 22:58:01:839
-3.2;-7.732;-1.659;-1.491;-9.406;-2.339;-1.709;1.674;0.68;-0.867;-0.292;-0.043;-0.3;-6.0;19.1;52.17;8628;2018-04-16 22:58:01:849
-3.2;-7.732;-1.659;-1.491;-9.406;-2.339;-1.709;1.674;0.68;-0.867;-0.292;-0.043;-0.3;-6.0;19.1;52.17;8638;2018-04-16 22:58:01:859
-2.722;-7.341;-0.885;-1.522;-9.357;-2.511;-1.2;2.016;1.627;-0.992;-0.381;0.084;-0.3;-6.3;19.2;52.17;8648;2018-04-16 22:58:01:869
-2.635;-7.315;-0.584;-1.537;-9.334;-2.586;-1.098;2.018;2.002;-0.938;-0.315;0.083;-0.5;-6.5;19.4;52.17;8658;2018-04-16 22:58:01:879
-2.24;-7.315;-0.921;-1.537;-9.334;-2.586;-1.098;2.018;2.002;-0.8;-0.213;0.081;-0.5;-6.5;19.4;52.17;8668;2018-04-16 22:58:01:889
-2.24;-7.315;-0.921;-1.564;-9.293;-2.715;-0.474;1.932;1.647;-0.8;-0.213;0.081;-0.9;-6.9;19.3;52.17;8678;2018-04-16 22:58:01:899
-1.712;-7.454;-1.104;-1.564;-9.293;-2.715;-0.474;1.932;1.647;-0.462;-0.336;0.084;-0.9;-6.9;19.3;52.53;8688;2018-04-16 22:58:01:909
-1.712;-7.454;-1.104;-1.602;-9.269;-2.773;0.357;1.801;1.902;-0.462;-0.336;0.084;-1.3;-7.2;19.3;52.53;8698;2018-04-16 22:58:01:919
-0.899;-7.381;-0.933;-1.602;-9.269;-2.773;0.357;1.801;1.902;-0.116;-0.436;0.123;-1.3;-7.2;19.3;52.53;8708;2018-04-16 22:58:01:929
-0.899;-7.381;-0.933;-1.649;-9.261;-2.771;0.876;1.928;1.586;-0.116;-0.436;0.123;-1.6;-7.4;19.2;52.53;8718;2018-04-16 22:58:01:939
-0.755;-7.363;-1.569;-1.649;-9.261;-2.771;0.876;1.928;1.586;0.09;-0.364;0.17;-1.6;-7.4;19.2;52.53;8728;2018-04-16 22:58:01:949
-0.755;-7.363;-1.569;-1.705;-9.261;-2.738;0.869;1.803;0.756;0.138;-0.38;0.215;-1.9;-7.6;19.1;52.53;8738;2018-04-16 22:58:01:959
-0.933;-7.681;-2.375;-1.745;-9.261;-2.713;0.869;1.803;0.756;0.155;-0.457;0.258;-1.9;-7.6;19.1;52.53;8748;2018-04-16 22:58:01:969
-0.933;-7.681;-2.375;-1.745;-9.261;-2.713;0.819;1.271;-0.021;0.137;-0.69;0.309;-2.2;-7.7;18.9;52.53;8758;2018-04-16 22:58:01:979
-0.88;-8.37;-2.928;-1.84;-9.257;-2.664;0.819;1.271;-0.021;0.137;-0.69;0.309;-2.2;-7.7;18.9;52.53;8768;2018-04-16 22:58:01:989
-0.88;-8.37;-2.928;-1.84;-9.257;-2.664;1.154;0.382;-0.382;0.061;-0.915;0.321;-2.4;-7.8;18.9;52.53;8778;2018-04-16 22:58:01:999
-0.638;-9.256;-3.196;-1.936;-9.247;-2.631;1.154;0.382;-0.382;-0.005;-0.977;0.298;-2.4;-7.8;18.9;52.53;8787;2018-04-16 22:58:02:008
-0.638;-9.256;-3.196;-1.936;-9.247;-2.631;1.43;-0.316;-0.81;-0.084;-1.051;0.23;-2.6;-7.9;18.8;52.53;8798;2018-04-16 22:58:02:019
-0.565;-9.735;-3.776;-2.027;-9.233;-2.608;1.43;-0.316;-0.81;-0.084;-1.051;0.23;-2.6;-7.9;18.8;52.53;8808;2018-04-16 22:58:02:029
-0.565;-9.735;-3.776;-2.027;-9.233;-2.608;1.63;-0.733;-1.358;-0.109;-1.172;0.154;-2.8;-8.0;18.8;52.53;8819;2018-04-16 22:58:02:040
-0.426;-10.174;-4.137;-2.11;-9.224;-2.577;1.63;-0.733;-1.358;-0.066;-1.211;0.049;-2.8;-8.0;18.8;52.53;8828;2018-04-16 22:58:02:049
-0.426;-10.174;-4.137;-2.11;-9.224;-2.577;2.02;-1.554;-2.182;-0.066;-1.211;0.049;-2.8;-8.1;18.6;52.53;8838;2018-04-16 22:58:02:059
0.351;-10.806;-4.596;-2.161;-9.224;-2.535;2.02;-1.554;-2.182;-0.011;-1.053;-0.07;-2.8;-8.1;18.6;52.53;8847;2018-04-16 22:58:02:068
0.351;-10.806;-4.596;-2.161;-9.224;-2.535;2.569;-1.251;-1.766;-0.011;-1.053;-0.07;-2.7;-8.2;18.7;52.53;8858;2018-04-16 22:58:02:079
0.142;-9.931;-4.195;-2.138;-9.245;-2.477;2.569;-1.251;-1.766;0.22;-0.542;-0.334;-2.7;-8.2;18.7;52.53;8868;2018-04-16 22:58:02:089
0.142;-9.931;-4.195;-2.138;-9.245;-2.477;1.879;-0.162;-1.807;0.325;-0.375;-0.393;-2.5;-8.2;18.6;52.53;8878;2018-04-16 22:58:02:099
-0.857;-9.248;-4.057;-2.068;-9.278;-2.41;1.879;-0.162;-1.807;0.371;-0.221;-0.435;-2.5;-8.2;18.6;52.53;8888;2018-04-16 22:58:02:109
-1.86;-9.29;-3.658;-2.068;-9.278;-2.41;0.476;0.008;-1.407;0.395;-0.056;-0.44;-2.3;-8.3;18.7;52.53;8899;2018-04-16 22:58:02:120
-2.38;-9.432;-3.427;-1.987;-9.312;-2.346;0.476;0.008;-1.407;0.382;0.042;-0.43;-2.3;-8.3;18.7;52.53;8910;2018-04-16 22:58:02:131
-2.38;-9.432;-3.427;-1.987;-9.312;-2.346;-0.842;-0.274;-0.93;0.382;0.042;-0.43;-2.0;-8.3;18.7;52.53;8918;2018-04-16 22:58:02:139
-3.518;-9.797;-3.102;-1.919;-9.344;-2.277;-0.842;-0.274;-0.93;0.34;-0.187;-0.384;-2.0;-8.3;18.7;52.53;8928;2018-04-16 22:58:02:149
-3.518;-9.797;-3.102;-1.919;-9.344;-2.277;-2.137;-0.346;-0.742;0.34;-0.187;-0.384;-1.8;-8.3;18.8;52.53;8938;2018-04-16 22:58:02:159
-4.565;-9.491;-2.917;-1.895;-9.368;-2.194;-2.137;-0.346;-0.742;0.316;-0.737;-0.244;-1.8;-8.3;18.8;52.53;8948;2018-04-16 22:58:02:169
-5.004;-9.582;-2.965;-1.899;-9.376;-2.156;-3.105;-0.205;-0.809;0.252;-0.932;-0.172;-1.5;-8.3;18.8;52.53;8960;2018-04-16 22:58:02:181
-5.004;-9.582;-2.965;-1.899;-9.376;-2.156;-3.105;-0.205;-0.809;0.139;-0.997;-0.079;-1.5;-8.3;18.8;52.53;8968;2018-04-16 22:58:02:189
-5.064;-10.234;-4.351;-1.935;-9.381;-2.102;-3.129;-0.853;-2.25;0.139;-0.997;-0.079;-1.2;-8.1;18.9;52.53;8978;2018-04-16 22:58:02:199
-5.064;-10.234;-4.351;-1.935;-9.381;-2.102;-3.129;-0.853;-2.25;-0.086;-1.036;0.095;-1.2;-8.1;18.9;52.53;8988;2018-04-16 22:58:02:209
-3.345;-11.0;-6.462;-1.996;-9.372;-2.087;-1.349;-1.628;-4.375;-0.175;-0.969;0.101;-1.0;-8.0;18.9;52.53;8998;2018-04-16 22:58:02:219
-3.345;-11.0;-6.462;-1.996;-9.372;-2.087;-1.349;-1.628;-4.375;-0.242;-0.764;0.011;-1.0;-8.0;18.9;51.25;9007;2018-04-16 22:58:02:228
-1.275;-11.074;-4.277;-2.008;-9.364;-2.111;0.733;-1.711;-2.166;-0.242;-0.764;0.011;-0.7;-7.9;19.0;51.25;9018;2018-04-16 22:58:02:239
-1.275;-11.074;-4.277;-2.008;-9.364;-2.111;0.733;-1.711;-2.166;-0.206;0.359;-0.259;-0.7;-7.9;19.0;51.25;9028;2018-04-16 22:58:02:249
-1.009;-8.904;0.13;-1.927;-9.371;-2.153;0.918;0.467;2.283;0.004;0.93;-0.287;-0.3;-7.8;19.1;51.25;9040;2018-04-16 22:58:02:261
-1.803;-7.688;0.65;-1.877;-9.383;-2.148;0.527;1.113;2.519;0.222;0.893;-0.286;-0.2;-7.7;19.2;51.25;9052;2018-04-16 22:58:02:273
-1.803;-7.688;0.65;-1.877;-9.383;-2.148;0.527;1.113;2.519;0.222;0.893;-0.286;-0.2;-7.7;19.2;51.25;9059;2018-04-16 22:58:02:280
-3.64;-6.566;2.998;-1.877;-9.383;-2.148;0.527;1.113;2.519;0.335;-0.29;-0.147;-0.2;-7.7;19.2;51.25;9067;2018-04-16 22:58:02:288
-3.64;-6.566;2.998;-1.844;-9.411;-2.049;-1.833;2.739;4.817;0.325;-0.357;-0.086;0.1;-7.5;19.3;51.25;9078;2018-04-16 22:58:02:299
-3.572;-7.116;1.848;-1.842;-9.419;-2.013;-1.809;2.64;4.487;0.305;-0.215;-0.07;0.2;-7.4;19.3;51.25;9088;2018-04-16 22:58:02:309
-3.572;-7.116;1.848;-1.842;-9.419;-2.013;-1.809;2.64;4.487;0.305;-0.215;-0.07;0.2;-7.4;19.3;51.25;9098;2018-04-16 22:58:02:319
-3.171;-9.098;-0.547;-1.849;-9.427;-1.97;-1.322;0.329;1.422;0.244;0.49;0.136;0.4;-7.3;19.2;51.25;9108;2018-04-16 22:58:02:329
-3.171;-9.098;-0.547;-1.849;-9.427;-1.97;-1.322;0.329;1.422;0.244;0.49;0.136;0.4;-7.3;19.2;51.25;9118;2018-04-16 22:58:02:339
-3.554;-10.306;-0.271;-1.886;-9.426;-1.942;-1.311;-0.482;1.076;0.282;0.694;0.371;0.5;-7.1;19.3;51.25;9128;2018-04-16 22:58:02:349
-3.554;-10.306;-0.271;-1.886;-9.426;-1.942;-1.311;-0.482;1.076;0.335;0.767;0.443;0.5;-7.1;19.3;51.25;9138;2018-04-16 22:58:02:359
-3.856;-10.246;0.138;-1.941;-9.421;-1.911;-1.915;-0.825;2.048;0.329;0.85;0.467;0.5;-7.0;19.3;51.25;9148;2018-04-16 22:58:02:369
-3.856;-10.246;0.138;-1.941;-9.421;-1.911;-1.915;-0.825;2.048;0.329;0.85;0.467;0.5;-7.0;19.3;51.25;9158;2018-04-16 22:58:02:379
-3.492;-10.13;-0.915;-2.008;-9.415;-1.87;-1.484;-0.715;0.955;0.432;0.801;0.541;0.5;-6.8;19.3;51.25;9168;2018-04-16 22:58:02:389
-3.492;-10.13;-0.915;-2.008;-9.415;-1.87;-1.484;-0.715;0.955;0.713;0.379;0.58;0.5;-6.8;19.3;51.25;9178;2018-04-16 22:58:02:399
-3.037;-9.459;-0.758;-2.111;-9.423;-1.71;-0.926;-0.037;0.952;0.972;-0.053;0.528;0.5;-6.6;19.3;51.25;9188;2018-04-16 22:58:02:409
-3.037;-9.459;-0.758;-2.111;-9.423;-1.71;-0.926;-0.037;0.952;1.032;-0.211;0.412;0.5;-6.6;19.3;51.25;9198;2018-04-16 22:58:02:419
-3.655;-9.416;0.168;-2.197;-9.438;-1.507;-1.458;0.021;1.674;0.935;-0.136;0.362;0.4;-6.4;19.2;51.25;9208;2018-04-16 22:58:02:429
-3.655;-9.416;0.168;-2.197;-9.438;-1.507;-1.458;0.021;1.674;0.777;0.055;0.409;0.4;-6.4;19.2;51.25;9218;2018-04-16 22:58:02:439
-3.378;-9.041;0.171;-2.29;-9.437;-1.368;-1.089;0.396;1.54;0.608;0.231;0.487;0.3;-6.2;19.2;51.25;9228;2018-04-16 22:58:02:449
-3.007;-9.12;0.091;-2.29;-9.437;-1.368;-1.089;0.396;1.54;0.484;0.313;0.536;0.3;-6.2;19.2;51.25;9238;2018-04-16 22:58:02:459
-3.007;-9.12;0.091;-2.39;-9.424;-1.284;-0.588;0.204;1.34;0.414;0.277;0.547;0.3;-6.0;19.2;51.25;9248;2018-04-16 22:58:02:469
-2.873;-9.491;-0.072;-2.39;-9.424;-1.284;-0.588;0.204;1.34;0.357;0.093;0.534;0.3;-6.0;19.2;51.25;9258;2018-04-16 22:58:02:479
-2.67;-9.722;-0.176;-2.49;-9.407;-1.212;-0.179;-0.314;1.036;0.357;0.093;0.534;0.2;-5.8;19.2;51.25;9268;2018-04-16 22:58:02:489
-2.67;-9.722;-0.176;-2.49;-9.407;-1.212;-0.179;-0.314;1.036;0.331;-0.213;0.497;0.2;-5.8;19.2;51.25;9278;2018-04-16 22:58:02:499
-2.14;-9.78;-0.352;-2.584;-9.393;-1.125;0.443;-0.387;0.773;0.331;-0.472;0.45;0.1;-5.6;19.2;51.25;9288;2018-04-16 22:58:02:509
-2.14;-9.78;-0.352;-2.584;-9.393;-1.125;0.443;-0.387;0.773;0.316;-0.878;0.395;0.1;-5.6;19.2;51.25;9298;2018-04-16 22:58:02:519
-1.828;-9.791;-0.044;-2.671;-9.382;-1.012;0.843;-0.41;0.968;0.316;-0.878;0.395;0.0;-5.3;19.2;51.25;9308;2018-04-16 22:58:02:529
-1.828;-9.791;-0.044;-2.671;-9.382;-1.012;0.843;-0.41;0.968;0.358;-1.173;0.414;0.0;-5.3;19.2;51.25;9318;2018-04-16 22:58:02:539
-0.919;-9.851;0.516;-2.757;-9.371;-0.862;1.838;-0.479;1.377;0.439;-1.26;0.421;0.0;-5.0;19.1;56.01;9328;2018-04-16 22:58:02:549
-0.919;-9.851;0.516;-2.757;-9.371;-0.862;1.838;-0.479;1.377;0.54;-1.218;0.37;0.0;-5.0;19.1;56.01;9339;2018-04-16 22:58:02:560
-0.393;-9.658;0.402;-2.81;-9.371;-0.68;2.417;-0.287;1.083;0.612;-1.091;0.259;-0.1;-4.7;19.0;56.01;9348;2018-04-16 22:58:02:569
-0.633;-9.671;0.176;-2.81;-9.371;-0.68;2.417;-0.287;1.083;0.671;-0.776;0.083;-0.1;-4.7;19.0;56.01;9358;2018-04-16 22:58:02:579
-0.633;-9.671;0.176;-2.813;-9.381;-0.506;1.992;-0.313;0.584;0.671;-0.776;0.083;-0.1;-4.4;19.0;56.01;9368;2018-04-16 22:58:02:589
-1.083;-9.677;-0.104;-2.813;-9.381;-0.506;1.992;-0.313;0.584;0.662;-0.432;-0.043;-0.1;-4.4;19.0;56.01;9379;2018-04-16 22:58:02:600
-1.083;-9.677;-0.104;-2.786;-9.395;-0.372;1.295;-0.22;0.139;0.596;-0.247;-0.114;-0.1;-4.1;19.0;56.01;9388;2018-04-16 22:58:02:609
-1.645;-9.364;-0.245;-2.786;-9.395;-0.372;1.295;-0.22;0.139;0.596;-0.247;-0.114;-0.1;-4.1;19.0;56.01;9398;2018-04-16 22:58:02:619
-1.538;-9.148;-0.297;-2.751;-9.409;-0.279;1.212;0.261;-0.018;0.417;-0.147;-0.155;-0.1;-3.8;19.1;56.01;9408;2018-04-16 22:58:02:629
-1.538;-9.148;-0.297;-2.751;-9.409;-0.279;1.212;0.261;-0.018;0.417;-0.147;-0.155;-0.1;-3.8;19.1;56.01;9418;2018-04-16 22:58:02:639
