sep=;
acc_x;acc_y;acc_z;grav_x;grav_y;grav_z;lin_acc_x;lin_acc_y;lin_acc_z;gyro_x;gyro_y;gyro_z;mag_x;mag_y;mag_z;sound_lvl;time_ms;date_time
2.914;3.619;4.739;1.88;5.607;7.823;0.12;-2.603;-3.226;-0.338;-0.082;-1.145;0.2;-30.2;9.0;43.23;15;2018-04-16 23:00:19:176
-0.001;2.228;4.323;1.835;5.603;7.836;-1.836;-3.376;-3.513;-0.305;-0.151;-1.1;1.2;-29.3;10.0;50.02;25;2018-04-16 23:00:19:186
-2.303;1.235;5.283;1.826;5.626;7.822;-4.222;-4.556;-2.748;-0.011;-0.494;-0.723;2.3;-29.3;9.6;50.02;35;2018-04-16 23:00:19:196
-2.303;1.235;5.283;1.826;5.626;7.822;-4.222;-4.556;-2.748;-0.011;-0.494;-0.723;2.3;-29.3;9.6;50.02;46;2018-04-16 23:00:19:207
-2.794;0.919;2.847;1.874;5.654;7.79;-4.441;-4.731;-3.921;0.315;-0.623;-0.077;2.4;-29.4;11.2;50.02;56;2018-04-16 23:00:19:217
-2.794;0.919;2.847;1.874;5.654;7.79;-4.441;-4.731;-3.921;0.315;-0.623;-0.077;2.4;-29.4;11.2;50.02;66;2018-04-16 23:00:19:227
-2.794;0.919;2.847;1.874;5.654;7.79;-4.441;-4.731;-3.921;0.315;-0.623;-0.077;2.4;-29.4;11.2;50.02;76;2018-04-16 23:00:19:237
-3.485;0.877;0.0;2.239;5.722;7.643;-5.724;-4.845;-7.643;0.552;-1.922;0.468;2.8;-28.7;10.1;50.02;86;2018-04-16 23:00:19:247
-1.912;-1.924;2.215;2.239;5.722;7.643;-5.724;-4.845;-7.643;1.222;-4.213;1.918;3.9;-28.7;10.0;50.02;96;2018-04-16 23:00:19:257
-1.052;-2.765;2.885;3.362;5.822;7.14;-4.992;-8.056;-4.525;1.459;-4.42;2.932;3.9;-28.7;10.0;50.02;105;2018-04-16 23:00:19:266
-1.052;-2.765;2.885;3.362;5.822;7.14;-4.992;-8.056;-4.525;1.459;-4.42;2.932;4.4;-28.6;9.1;50.02;115;2018-04-16 23:00:19:276
-0.624;-3.575;2.209;4.348;5.776;6.626;-4.972;-9.351;-4.417;1.572;-4.49;3.652;4.4;-28.6;9.1;50.02;125;2018-04-16 23:00:19:286
0.656;-4.508;1.167;5.497;5.516;5.96;-4.321;-10.305;-4.948;1.684;-4.86;4.806;4.7;-28.6;9.8;50.02;136;2018-04-16 23:00:19:297
0.656;-4.508;1.167;5.497;5.516;5.96;-4.321;-10.305;-4.948;1.684;-4.86;4.806;4.7;-28.6;9.8;50.02;146;2018-04-16 23:00:19:307
2.079;-5.559;0.639;6.171;5.244;5.53;-4.092;-10.803;-4.891;1.701;-5.142;5.925;4.6;-28.4;10.0;50.02;155;2018-04-16 23:00:19:316
4.93;-8.918;-0.291;7.398;4.421;4.678;-2.469;-13.34;-4.969;1.503;-5.02;7.455;4.6;-28.4;10.0;50.02;166;2018-04-16 23:00:19:327
4.93;-8.918;-0.291;7.398;4.421;4.678;-2.469;-13.34;-4.969;1.503;-5.02;7.455;4.0;-28.1;10.5;50.02;176;2018-04-16 23:00:19:337
8.153;-11.918;-0.436;8.468;3.133;3.828;0.566;-15.607;-4.223;1.134;-4.842;8.652;3.7;-28.7;10.3;50.02;186;2018-04-16 23:00:19:347
8.153;-11.918;-0.436;8.468;3.133;3.828;0.566;-15.607;-4.223;1.134;-4.842;8.652;3.7;-28.7;10.3;50.02;197;2018-04-16 23:00:19:358
11.575;-13.876;-0.121;8.87;2.366;3.45;2.705;-16.242;-3.571;0.621;-4.498;9.792;3.9;-28.5;10.5;50.02;206;2018-04-16 23:00:19:367
15.643;-15.086;1.41;8.87;2.366;3.45;2.705;-16.242;-3.571;0.077;-4.224;10.657;4.1;-28.4;10.6;50.02;216;2018-04-16 23:00:19:377
15.643;-15.086;1.41;9.425;0.441;2.674;6.218;-15.527;-1.263;0.077;-4.224;10.657;4.1;-28.4;10.6;50.02;226;2018-04-16 23:00:19:387
19.899;-13.343;5.045;9.489;-1.626;1.866;13.506;-9.454;6.749;-0.238;-4.173;10.964;4.1;-28.3;10.7;50.02;236;2018-04-16 23:00:19:397
24.855;-9.538;10.524;9.489;-1.626;1.866;13.506;-9.454;6.749;0.839;-4.49;10.166;4.1;-28.3;10.7;50.02;245;2018-04-16 23:00:19:406
29.37;-6.559;12.72;9.329;-2.671;1.418;16.704;-5.987;10.049;1.968;-4.337;9.303;3.9;-28.2;10.8;50.02;255;2018-04-16 23:00:19:416
29.37;-6.559;12.72;9.329;-2.671;1.418;16.704;-5.987;10.049;1.968;-4.337;9.303;3.9;-28.2;10.8;50.02;266;2018-04-16 23:00:19:427
32.547;-5.005;11.826;8.823;-4.191;0.876;23.724;-0.814;10.95;3.155;-3.72;8.106;0.6;-27.5;10.9;50.02;276;2018-04-16 23:00:19:437
32.923;-3.632;7.928;8.823;-4.191;0.876;23.724;-0.814;10.95;4.579;-1.863;4.787;-1.0;-26.0;11.1;50.02;286;2018-04-16 23:00:19:447
32.923;-3.632;7.928;8.391;-4.989;0.939;23.421;1.649;5.313;4.579;-1.863;4.787;-1.0;-26.0;11.1;50.02;296;2018-04-16 23:00:19:457
29.353;-2.897;2.995;8.272;-5.147;1.118;21.081;2.251;1.877;4.407;-0.309;2.654;-3.3;-22.1;13.5;50.02;306;2018-04-16 23:00:19:467
29.353;-2.897;2.995;8.272;-5.147;1.118;21.081;2.251;1.877;4.407;-0.309;2.654;-3.3;-22.1;13.5;50.02;316;2018-04-16 23:00:19:477
30.263;-0.205;-3.247;8.084;-5.301;1.65;22.179;5.096;-4.897;2.454;1.896;1.078;-5.4;-19.8;13.7;50.02;326;2018-04-16 23:00:19:487
29.76;0.614;-7.043;7.97;-5.276;2.195;20.856;5.762;-13.845;0.363;3.186;-0.071;-6.2;-19.1;16.2;50.69;336;2018-04-16 23:00:19:497
29.76;0.614;-7.043;7.97;-5.276;2.195;20.856;5.762;-13.845;0.363;3.186;-0.071;-6.2;-19.1;16.2;50.69;346;2018-04-16 23:00:19:507
23.379;-0.854;-11.164;7.968;-5.185;2.408;15.412;4.332;-13.572;-2.133;3.84;-1.646;-8.4;-18.9;16.4;50.69;356;2018-04-16 23:00:19:517
16.545;-4.451;3.564;8.061;-4.96;2.566;8.484;0.509;0.998;-2.97;2.948;-2.352;-8.4;-18.9;16.4;50.69;366;2018-04-16 23:00:19:527
16.545;-4.451;3.564;8.061;-4.96;2.566;8.484;0.509;0.998;-2.05;1.194;-2.247;-10.1;-21.0;14.7;50.69;376;2018-04-16 23:00:19:537
13.829;-5.956;16.674;8.223;-4.679;2.579;5.147;-0.966;12.911;-1.428;0.771;-2.118;-9.2;-19.9;15.0;50.69;386;2018-04-16 23:00:19:547
13.829;-5.956;16.674;8.223;-4.679;2.579;5.147;-0.966;12.911;1.253;0.608;-1.714;-9.2;-19.9;15.0;50.69;396;2018-04-16 23:00:19:557
13.829;-5.956;16.674;8.223;-4.679;2.579;5.147;-0.966;12.911;1.253;0.608;-1.714;-9.2;-19.9;15.0;50.69;405;2018-04-16 23:00:19:566
12.568;-5.098;4.134;8.356;-4.31;2.789;3.915;-0.069;2.178;1.729;0.553;-1.657;-10.3;-21.8;12.6;50.69;416;2018-04-16 23:00:19:577
7.95;-1.931;-3.468;8.561;-3.902;2.766;-1.598;2.886;-9.342;2.644;-0.966;-1.599;-10.2;-21.8;15.1;50.69;426;2018-04-16 23:00:19:587
6.402;-0.099;-8.413;8.561;-3.902;2.766;-1.598;2.886;-9.342;2.175;-1.795;-1.228;-10.4;-21.8;13.2;50.69;436;2018-04-16 23:00:19:597
6.402;-0.099;-8.413;8.561;-3.902;2.766;-1.598;2.886;-9.342;2.175;-1.795;-1.228;-10.4;-21.8;13.2;50.69;446;2018-04-16 23:00:19:607
9.827;0.824;-1.484;8.761;-3.675;2.433;1.066;4.498;-3.917;0.855;-2.315;-0.687;-8.6;-20.2;15.6;50.69;456;2018-04-16 23:00:19:617
9.827;0.824;-1.484;8.761;-3.675;2.433;1.066;4.498;-3.917;1.159;-2.77;-0.892;-8.6;-20.2;15.6;50.69;466;2018-04-16 23:00:19:627
10.942;0.642;4.077;8.951;-3.458;2.024;1.991;4.099;2.053;1.757;-3.002;-1.12;-7.6;-21.1;14.6;50.69;476;2018-04-16 23:00:19:637
6.494;-0.163;-1.754;8.951;-3.458;2.024;1.991;4.099;2.053;2.158;-2.806;-1.301;-7.3;-20.6;16.3;50.69;486;2018-04-16 23:00:19:647
6.494;-0.163;-1.754;9.135;-3.161;1.653;-3.766;3.436;-4.771;2.158;-2.806;-1.301;-7.3;-20.6;16.3;50.69;496;2018-04-16 23:00:19:657
4.794;0.785;-3.758;9.199;-3.057;1.486;-4.404;3.843;-5.244;1.279;-2.421;-1.015;-6.2;-20.3;16.5;50.69;506;2018-04-16 23:00:19:667
4.794;0.785;-3.758;9.199;-3.057;1.486;-4.404;3.843;-5.244;1.279;-2.421;-1.015;-6.2;-20.3;16.5;50.69;516;2018-04-16 23:00:19:677
4.794;0.785;-3.758;9.199;-3.057;1.486;-4.404;3.843;-5.244;1.279;-2.421;-1.015;-6.2;-20.3;16.5;50.69;525;2018-04-16 23:00:19:686
4.794;0.785;-3.758;9.199;-3.057;1.486;-4.404;3.843;-5.244;1.279;-2.421;-1.015;-6.2;-20.3;16.5;50.69;536;2018-04-16 23:00:19:697
4.794;0.785;-3.758;9.199;-3.057;1.486;-4.404;3.843;-5.244;1.279;-2.421;-1.015;-6.2;-20.3;16.5;50.69;545;2018-04-16 23:00:19:706
4.794;0.785;-3.758;9.199;-3.057;1.486;-4.404;3.843;-5.244;1.279;-2.421;-1.015;-6.2;-20.3;16.5;50.69;556;2018-04-16 23:00:19:717
4.794;0.785;-3.758;9.199;-3.057;1.486;-4.404;3.843;-5.244;1.279;-2.421;-1.015;-6.2;-20.3;16.5;50.69;566;2018-04-16 23:00:19:727
4.794;0.785;-3.758;9.199;-3.057;1.486;-4.404;3.843;-5.244;1.279;-2.421;-1.015;-6.2;-20.3;16.5;50.69;576;2018-04-16 23:00:19:737
4.794;0.785;-3.758;9.199;-3.057;1.486;-4.404;3.843;-5.244;1.279;-2.421;-1.015;-6.2;-20.3;16.5;50.69;586;2018-04-16 23:00:19:747
4.794;0.785;-3.758;9.199;-3.057;1.486;-4.404;3.843;-5.244;1.279;-2.421;-1.015;-6.2;-20.3;16.5;50.69;596;2018-04-16 23:00:19:757
4.794;0.785;-3.758;9.199;-3.057;1.486;-4.404;3.843;-5.244;1.279;-2.421;-1.015;-6.2;-20.3;16.5;50.69;605;2018-04-16 23:00:19:766
4.794;0.785;-3.758;9.199;-3.057;1.486;-4.404;3.843;-5.244;1.279;-2.421;-1.015;-6.2;-20.3;16.5;50.69;616;2018-04-16 23:00:19:777
4.794;0.785;-3.758;9.199;-3.057;1.486;-4.404;3.843;-5.244;1.279;-2.421;-1.015;-6.2;-20.3;16.5;50.69;626;2018-04-16 23:00:19:787
4.794;0.785;-3.758;9.199;-3.057;1.486;-4.404;3.843;-5.244;1.279;-2.421;-1.015;-6.2;-20.3;16.5;50.69;636;2018-04-16 23:00:19:797
4.794;0.785;-3.758;9.199;-3.057;1.486;-4.404;3.843;-5.244;1.279;-2.421;-1.015;-6.2;-20.3;16.5;50.69;646;2018-04-16 23:00:19:807
4.794;0.785;-3.758;9.199;-3.057;1.486;-4.404;3.843;-5.244;1.279;-2.421;-1.015;-6.2;-20.3;16.5;50.69;656;2018-04-16 23:00:19:817
4.794;0.785;-3.758;9.199;-3.057;1.486;-4.404;3.843;-5.244;1.279;-2.421;-1.015;-6.2;-20.3;16.5;50.69;666;2018-04-16 23:00:19:827
5.332;0.2;-1.001;9.296;-2.889;1.191;-3.872;3.084;-2.388;0.097;-1.459;-0.876;-5.9;-19.2;16.4;50.69;676;2018-04-16 23:00:19:837
5.332;0.2;-1.001;9.296;-2.889;1.191;-3.872;3.084;-2.388;0.097;-1.459;-0.876;-5.9;-19.2;16.4;50.69;686;2018-04-16 23:00:19:847
9.771;-1.226;-0.189;9.455;-2.56;-0.463;0.316;1.334;0.274;0.948;-0.897;-0.468;-0.8;-19.0;19.1;50.69;695;2018-04-16 23:00:19:856
9.798;-1.058;-0.208;9.457;-2.546;-0.496;0.341;1.488;0.288;0.205;-0.219;0.012;-0.8;-19.0;19.1;50.69;705;2018-04-16 23:00:19:866
9.798;-1.058;-0.208;9.457;-2.546;-0.496;0.341;1.488;0.288;-0.088;-0.037;0.088;-0.6;-19.4;19.2;48.92;716;2018-04-16 23:00:19:877
8.523;-2.936;-0.53;9.452;-2.563;-0.51;-1.503;-1.157;-0.458;-0.253;-0.02;0.105;-0.6;-19.4;19.2;48.92;726;2018-04-16 23:00:19:887
6.782;-5.183;-1.933;9.452;-2.563;-0.51;-1.503;-1.157;-0.458;-0.253;-0.02;0.105;-0.6;-18.9;18.8;48.92;735;2018-04-16 23:00:19:896
6.3;-5.856;-2.822;9.429;-2.629;-0.596;-3.129;-3.228;-2.225;-0.32;-0.331;0.312;-0.6;-18.9;18.8;48.92;745;2018-04-16 23:00:19:906
6.3;-5.856;-2.822;9.429;-2.629;-0.596;-3.129;-3.228;-2.225;-0.481;-0.525;0.553;-0.9;-19.0;19.1;48.92;756;2018-04-16 23:00:19:917
6.663;-4.131;-2.692;9.369;-2.793;-0.766;-4.849;-0.154;-0.859;-0.726;-0.649;0.852;-0.9;-19.0;19.1;48.92;765;2018-04-16 23:00:19:926
3.788;-2.478;0.212;9.369;-2.793;-0.766;-4.849;-0.154;-0.859;-0.926;-0.713;1.289;-0.9;-18.9;19.1;48.92;776;2018-04-16 23:00:19:937
3.788;-2.478;0.212;9.232;-3.187;-0.888;-5.686;1.223;-0.961;-0.854;-0.368;2.15;-0.9;-18.9;19.1;48.92;785;2018-04-16 23:00:19:946
3.264;-2.438;-2.048;9.232;-3.187;-0.888;-5.686;1.223;-0.961;-0.801;-0.274;3.146;-0.4;-18.8;19.2;48.92;796;2018-04-16 23:00:19:957
4.318;-2.16;-2.831;8.894;-3.98;-1.11;-4.576;1.82;-1.721;-0.942;-0.83;5.045;-0.4;-18.8;19.2;48.92;805;2018-04-16 23:00:19:966
4.318;-2.16;-2.831;8.894;-3.98;-1.11;-4.576;1.82;-1.721;-1.03;-1.801;6.148;0.0;-18.8;19.4;48.92;816;2018-04-16 23:00:19:977
6.139;-3.004;-1.864;8.231;-5.095;-1.569;-1.474;1.189;0.344;-1.001;-2.414;7.064;0.0;-18.8;19.4;48.92;826;2018-04-16 23:00:19:987
6.913;-6.782;1.059;8.231;-5.095;-1.569;-1.474;1.189;0.344;-0.662;-2.173;7.751;0.1;-19.0;19.5;48.92;836;2018-04-16 23:00:19:997
6.913;-6.782;1.059;7.251;-6.37;-1.735;-1.094;-1.845;2.98;0.192;-1.027;8.253;0.1;-19.0;19.5;48.92;846;2018-04-16 23:00:20:007
5.437;-8.586;0.56;7.251;-6.37;-1.735;-1.094;-1.845;2.98;1.392;-0.238;8.619;0.2;-19.1;19.4;48.92;856;2018-04-16 23:00:20:017
2.873;-8.687;-1.724;5.923;-7.679;-1.453;-3.05;-1.008;-0.27;2.486;-0.441;9.044;0.2;-19.1;19.4;48.92;865;2018-04-16 23:00:20:026
2.873;-8.687;-1.724;5.923;-7.679;-1.453;-3.05;-1.008;-0.27;3.224;-1.341;9.587;0.2;-19.1;19.5;48.92;875;2018-04-16 23:00:20:036
2.242;-6.761;-0.045;4.239;-8.783;-1.028;-1.877;2.769;1.411;3.885;-2.219;10.027;0.2;-19.1;19.5;48.92;886;2018-04-16 23:00:20:047
1.905;-5.934;1.81;4.239;-8.783;-1.028;-1.877;2.769;1.411;4.512;-2.53;9.971;0.0;-19.0;19.4;48.92;896;2018-04-16 23:00:20:057
1.905;-5.934;1.81;2.415;-9.501;-0.273;-1.095;3.179;1.579;5.002;-2.327;9.79;-0.2;-18.9;19.4;48.92;906;2018-04-16 23:00:20:067
0.904;-6.76;1.938;2.415;-9.501;-0.273;-1.095;3.179;1.579;4.905;-1.567;9.533;-0.2;-18.9;19.4;48.92;916;2018-04-16 23:00:20:077
0.424;-5.559;2.635;0.643;-9.772;0.515;-0.219;4.213;2.12;3.74;-0.589;8.895;-2.0;-16.1;19.8;48.92;926;2018-04-16 23:00:20:087
0.424;-5.559;2.635;0.643;-9.772;0.515;-0.219;4.213;2.12;3.74;-0.589;8.895;-2.0;-16.1;19.8;48.92;936;2018-04-16 23:00:20:097
0.945;-2.722;-1.244;-0.83;-9.745;0.718;1.912;7.669;-3.309;1.063;1.23;7.456;-3.4;-11.8;20.9;48.92;946;2018-04-16 23:00:20:107
1.088;-1.445;-4.845;-0.83;-9.745;0.718;1.912;7.669;-3.309;-0.27;0.568;6.602;-3.4;-11.8;20.9;48.92;955;2018-04-16 23:00:20:116
1.088;-1.445;-4.845;-1.928;-9.598;0.574;3.327;8.163;-5.304;-0.97;-1.619;5.83;-4.3;-8.9;21.5;48.92;965;2018-04-16 23:00:20:126
1.511;-1.493;-3.892;-1.928;-9.598;0.574;3.327;8.163;-5.304;-1.613;-3.466;5.118;-4.3;-8.9;21.5;48.92;976;2018-04-16 23:00:20:137
1.607;-1.829;0.254;-2.739;-9.408;0.39;4.345;7.579;-0.136;-2.167;-4.729;4.502;-3.6;-7.1;22.7;48.92;985;2018-04-16 23:00:20:146
1.607;-1.829;0.254;-2.739;-9.408;0.39;4.345;7.579;-0.136;-2.393;-5.429;4.071;-3.6;-7.1;22.7;48.92;995;2018-04-16 23:00:20:156
-7.147;-22.637;6.063;-3.456;-9.171;0.354;-9.706;-22.443;5.987;-2.213;-5.749;3.815;-2.3;-7.7;23.1;48.92;1006;2018-04-16 23:00:20:167
-12.19;-39.185;12.987;-3.456;-9.171;0.354;-9.706;-22.443;5.987;-1.635;-5.82;5.157;-2.3;-7.7;23.1;60.36;1015;2018-04-16 23:00:20:176
-12.19;-39.185;12.987;-4.216;-8.848;0.323;-2.69;-29.142;21.686;-2.183;-5.209;5.172;1.4;-7.9;21.5;60.36;1026;2018-04-16 23:00:20:187
-14.192;-35.128;24.166;-4.216;-8.848;0.323;-2.69;-29.142;21.686;-2.838;-2.26;0.513;1.4;-7.9;21.5;60.36;1036;2018-04-16 23:00:20:197
-11.058;-21.63;5.687;-3.906;-8.995;-0.098;-7.152;-12.636;5.786;-1.945;1.207;-2.031;3.3;-9.3;21.6;60.36;1045;2018-04-16 23:00:20:206
-11.058;-21.63;5.687;-3.906;-8.995;-0.098;-7.152;-12.636;5.786;-1.001;2.677;-1.873;3.3;-9.3;21.6;60.36;1055;2018-04-16 23:00:20:216
-6.431;-10.355;-1.295;-3.639;-9.097;-0.425;-0.544;3.14;-9.818;-0.628;2.81;-1.416;2.2;-9.0;21.0;60.36;1066;2018-04-16 23:00:20:227
-1.747;-1.299;-10.825;-3.639;-9.097;-0.425;-0.544;3.14;-9.818;-0.134;1.737;-0.942;2.2;-9.0;21.0;60.36;1075;2018-04-16 23:00:20:236
-2.138;-1.823;-4.385;-3.481;-9.164;0.286;1.343;7.34;-4.671;3.15;-4.63;-0.915;1.5;-9.9;21.8;60.36;1085;2018-04-16 23:00:20:246
-2.138;-1.823;-4.385;-3.481;-9.164;0.286;1.343;7.34;-4.671;3.604;-8.672;-0.947;1.5;-9.9;21.8;60.36;1096;2018-04-16 23:00:20:257
-4.588;-4.861;-1.887;-3.481;-9.164;0.286;1.343;7.34;-4.671;3.396;-8.795;-0.81;3.1;-8.5;22.4;60.36;1106;2018-04-16 23:00:20:267
-9.443;-8.899;-11.546;-3.164;-9.159;1.505;-2.337;3.705;-5.7;2.971;-8.754;-0.583;3.1;-8.5;22.4;60.36;1115;2018-04-16 23:00:20:276
-9.443;-8.899;-11.546;-2.857;-9.121;2.192;-7.96;-1.636;-7.724;1.326;-7.346;-0.172;7.2;-7.2;20.4;60.36;1126;2018-04-16 23:00:20:287
-10.075;-10.088;-2.553;-2.857;-9.121;2.192;-7.96;-1.636;-7.724;-0.888;-3.69;0.391;7.2;-7.2;20.4;60.36;1136;2018-04-16 23:00:20:297
-7.315;-8.076;4.051;-2.996;-9.162;1.804;-4.32;1.086;2.247;-2.236;-0.065;0.79;10.3;-5.8;18.9;60.36;1146;2018-04-16 23:00:20:307
-7.315;-8.076;4.051;-2.996;-9.162;1.804;-4.32;1.086;2.247;-2.506;2.496;0.998;10.3;-5.8;18.9;60.36;1156;2018-04-16 23:00:20:317
-3.916;-7.336;4.075;-3.284;-9.167;1.162;-0.291;1.563;2.439;-2.228;4.0;0.932;11.3;-6.5;18.0;60.36;1166;2018-04-16 23:00:20:327
-3.686;-8.983;2.49;-3.284;-9.167;1.162;-0.291;1.563;2.439;-1.835;4.728;0.579;11.3;-6.5;18.0;60.36;1175;2018-04-16 23:00:20:336
-3.686;-8.983;2.49;-3.431;-9.166;0.62;-0.716;-1.056;1.427;-1.294;4.887;0.291;9.4;-7.3;16.1;60.36;1186;2018-04-16 23:00:20:347
-3.808;-10.02;2.174;-3.431;-9.166;0.62;-0.716;-1.056;1.427;-0.514;4.479;0.275;9.4;-7.3;16.1;60.36;1196;2018-04-16 23:00:20:357
-3.157;-9.454;1.535;-3.511;-9.15;0.348;0.354;-0.304;1.186;0.078;4.136;0.249;7.8;-7.5;17.7;60.36;1206;2018-04-16 23:00:20:367
-3.157;-9.454;1.535;-3.511;-9.15;0.348;0.354;-0.304;1.186;0.34;3.874;0.115;7.8;-7.5;17.7;60.36;1216;2018-04-16 23:00:20:377
-3.419;-9.42;0.554;-3.545;-9.142;0.173;0.241;-0.218;0.106;0.424;3.635;0.077;5.7;-8.5;18.2;60.36;1226;2018-04-16 23:00:20:387
-3.075;-9.159;-0.227;-3.545;-9.142;0.173;0.241;-0.218;0.106;0.425;3.291;0.106;5.7;-8.5;18.2;60.36;1235;2018-04-16 23:00:20:396
-3.075;-9.159;-0.227;-3.564;-9.136;0.04;0.518;-0.054;-0.56;0.382;2.827;0.109;5.3;-7.1;21.1;60.36;1246;2018-04-16 23:00:20:407
-3.085;-9.328;-0.546;-3.564;-9.136;0.04;0.518;-0.054;-0.56;0.302;2.282;0.09;5.3;-7.1;21.1;60.36;1256;2018-04-16 23:00:20:417
-3.081;-9.566;-0.242;-3.575;-9.132;-0.049;0.494;-0.434;-0.193;0.202;1.728;0.082;3.9;-7.7;21.3;60.36;1266;2018-04-16 23:00:20:427
-3.081;-9.566;-0.242;-3.575;-9.132;-0.049;0.494;-0.434;-0.193;0.103;1.25;0.086;3.9;-7.7;21.3;60.36;1276;2018-04-16 23:00:20:437
-2.959;-9.493;0.099;-3.585;-9.127;-0.105;0.638;-0.299;0.334;0.004;0.858;0.089;4.0;-7.3;21.3;60.36;1286;2018-04-16 23:00:20:447
-2.881;-9.273;0.53;-3.585;-9.127;-0.105;0.638;-0.299;0.334;-0.081;0.535;0.093;4.0;-7.3;21.3;60.36;1296;2018-04-16 23:00:20:457
-2.881;-9.273;0.53;-3.599;-9.121;-0.143;0.76;0.0;0.895;-0.147;0.291;0.101;4.0;-7.7;20.0;60.36;1305;2018-04-16 23:00:20:466
-2.807;-9.041;0.832;-3.599;-9.121;-0.143;0.76;0.0;0.895;-0.182;0.132;0.106;4.0;-7.7;20.0;68.3;1315;2018-04-16 23:00:20:476
-2.879;-8.952;1.032;-3.616;-9.114;-0.169;0.737;0.162;1.201;-0.195;0.018;0.108;3.8;-8.1;21.5;68.3;1326;2018-04-16 23:00:20:487
-2.879;-8.952;1.032;-3.616;-9.114;-0.169;0.737;0.162;1.201;-0.199;-0.051;0.1;3.8;-8.1;21.5;68.3;1336;2018-04-16 23:00:20:497
-3.03;-8.994;1.373;-3.63;-9.109;-0.087;0.627;0.143;1.603;-0.184;-0.081;0.087;3.8;-7.9;20.9;68.3;1346;2018-04-16 23:00:20:507
-2.908;-8.973;1.549;-3.63;-9.109;-0.087;0.627;0.143;1.603;-0.143;-0.082;0.078;3.8;-7.9;20.9;68.3;1355;2018-04-16 23:00:20:516
-2.935;-9.055;1.409;-3.626;-9.112;0.045;0.691;0.057;1.364;-0.072;-0.079;0.039;3.6;-7.9;20.9;68.3;1366;2018-04-16 23:00:20:527
-2.935;-9.055;1.409;-3.626;-9.112;0.045;0.691;0.057;1.364;0.039;-0.162;0.018;3.6;-7.9;20.9;68.3;1376;2018-04-16 23:00:20:537
-2.944;-9.166;1.188;-3.598;-9.121;0.193;0.671;-0.062;0.93;0.109;-0.248;0.017;3.7;-8.4;21.3;68.3;1386;2018-04-16 23:00:20:547
-2.96;-9.22;0.927;-3.598;-9.121;0.193;0.671;-0.062;0.93;0.144;-0.33;0.006;3.7;-8.4;21.3;68.3;1396;2018-04-16 23:00:20:557
-2.96;-9.22;0.927;-3.566;-9.13;0.303;0.524;-0.11;0.449;0.159;-0.39;-0.002;3.9;-8.3;21.2;68.3;1406;2018-04-16 23:00:20:567
-3.087;-9.227;0.67;-3.566;-9.13;0.303;0.524;-0.11;0.449;0.137;-0.451;0.007;3.9;-8.3;21.2;68.3;1416;2018-04-16 23:00:20:577
-3.176;-9.172;0.437;-3.556;-9.132;0.365;0.38;-0.04;0.072;0.101;-0.485;0.012;3.8;-8.5;21.9;68.3;1426;2018-04-16 23:00:20:587
-3.176;-9.172;0.437;-3.556;-9.132;0.365;0.38;-0.04;0.072;0.101;-0.485;0.012;3.8;-8.5;21.9;68.3;1436;2018-04-16 23:00:20:597
-3.226;-9.124;0.202;-3.551;-9.132;0.412;0.319;0.036;-0.274;0.043;-0.557;0.013;3.6;-8.2;22.7;68.3;1446;2018-04-16 23:00:20:607
-3.292;-9.079;0.061;-3.551;-9.132;0.412;0.319;0.036;-0.274;0.009;-0.623;0.011;3.6;-8.2;22.7;68.3;1456;2018-04-16 23:00:20:617
-3.292;-9.079;0.061;-3.543;-9.133;0.456;0.158;0.004;-0.416;-0.016;-0.71;0.006;3.7;-8.2;20.9;68.3;1466;2018-04-16 23:00:20:627
-3.437;-9.148;0.018;-3.543;-9.133;0.456;0.158;0.004;-0.416;-0.024;-0.809;-0.004;3.7;-8.2;20.9;68.3;1476;2018-04-16 23:00:20:637
-3.589;-9.215;-0.147;-3.531;-9.134;0.513;-0.057;-0.081;-0.66;-0.018;-0.92;-0.007;3.5;-8.2;21.3;68.3;1486;2018-04-16 23:00:20:647
-3.589;-9.215;-0.147;-3.531;-9.134;0.513;-0.057;-0.081;-0.66;0.011;-1.07;-0.017;3.5;-8.2;21.3;68.3;1496;2018-04-16 23:00:20:657
-3.845;-9.177;-1.199;-3.506;-9.135;0.659;-0.417;-0.046;-1.68;0.198;-1.528;-0.033;3.2;-8.1;21.9;68.3;1506;2018-04-16 23:00:20:667
-3.997;-9.163;-0.177;-3.506;-9.135;0.659;-0.417;-0.046;-1.68;0.58;-2.34;-0.044;3.2;-8.1;21.9;68.3;1516;2018-04-16 23:00:20:677
-3.997;-9.163;-0.177;-3.462;-9.123;0.98;-0.446;0.055;-0.807;0.797;-2.74;-0.015;3.1;-8.1;22.3;68.3;1526;2018-04-16 23:00:20:687
-3.883;-9.033;0.127;-3.462;-9.123;0.98;-0.446;0.055;-0.807;0.821;-2.72;0.005;3.1;-8.1;22.3;68.3;1536;2018-04-16 23:00:20:697
-4.053;-9.076;-0.25;-3.409;-9.106;1.279;-0.644;0.029;-1.529;0.718;-2.404;0.004;3.2;-8.1;22.5;68.3;1546;2018-04-16 23:00:20:707
-4.053;-9.076;-0.25;-3.409;-9.106;1.279;-0.644;0.029;-1.529;0.718;-2.404;0.004;3.2;-8.1;22.5;68.3;1556;2018-04-16 23:00:20:717
-4.077;-9.036;-0.614;-3.368;-9.09;1.483;-0.681;0.09;-2.126;0.557;-1.891;0.026;3.5;-8.0;22.6;68.3;1566;2018-04-16 23:00:20:727
-3.964;-8.969;-0.48;-3.368;-9.09;1.483;-0.681;0.09;-2.126;0.39;-1.36;0.037;3.5;-8.0;22.6;68.3;1576;2018-04-16 23:00:20:737
-3.964;-8.969;-0.48;-3.36;-9.085;1.529;-0.533;0.093;-1.645;0.154;-0.646;0.034;3.9;-8.0;22.7;68.3;1586;2018-04-16 23:00:20:747
-3.846;-9.026;0.059;-3.36;-9.085;1.529;-0.533;0.093;-1.645;-0.122;0.162;0.026;3.9;-8.0;22.7;68.3;1596;2018-04-16 23:00:20:757
-3.656;-9.131;0.345;-3.393;-9.095;1.395;-0.263;-0.037;-1.05;-0.348;0.881;0.033;4.3;-7.9;22.6;68.3;1606;2018-04-16 23:00:20:767
-3.656;-9.131;0.345;-3.393;-9.095;1.395;-0.263;-0.037;-1.05;-0.48;1.371;0.028;4.3;-7.9;22.6;68.3;1616;2018-04-16 23:00:20:777
-3.591;-9.173;0.593;-3.437;-9.108;1.182;-0.132;-0.076;-0.53;-0.525;1.647;0.01;4.8;-7.9;22.6;46.08;1626;2018-04-16 23:00:20:787
-3.561;-9.187;0.703;-3.437;-9.108;1.182;-0.132;-0.076;-0.53;-0.517;1.778;-0.006;4.8;-7.9;22.6;46.08;1636;2018-04-16 23:00:20:797
-3.561;-9.187;0.703;-3.474;-9.12;0.968;-0.073;-0.051;-0.239;-0.475;1.818;-0.012;5.2;-7.8;22.7;46.08;1645;2018-04-16 23:00:20:806
-3.54;-9.161;0.729;-3.474;-9.12;0.968;-0.073;-0.051;-0.239;-0.411;1.754;-0.021;5.2;-7.8;22.7;46.08;1655;2018-04-16 23:00:20:816
-3.529;-9.142;0.621;-3.5;-9.128;0.776;-0.029;-0.014;-0.154;-0.36;1.651;-0.021;5.6;-7.8;22.8;46.08;1666;2018-04-16 23:00:20:827
-3.529;-9.142;0.621;-3.5;-9.128;0.776;-0.029;-0.014;-0.154;-0.301;1.494;-0.024;5.6;-7.8;22.8;46.08;1676;2018-04-16 23:00:20:837
-3.524;-9.039;0.461;-3.513;-9.133;0.639;-0.056;0.013;-0.15;-0.23;1.289;-0.027;5.9;-7.7;22.8;46.08;1686;2018-04-16 23:00:20:847
-3.53;-9.104;0.499;-3.513;-9.133;0.639;-0.056;0.013;-0.15;-0.164;1.06;-0.021;5.9;-7.7;22.8;46.08;1696;2018-04-16 23:00:20:857
-3.53;-9.104;0.499;-3.521;-9.136;0.562;0.03;0.048;-0.046;-0.071;0.729;-0.012;6.1;-7.6;22.9;46.08;1706;2018-04-16 23:00:20:867
-3.505;-9.092;0.52;-3.521;-9.136;0.562;0.03;0.048;-0.046;-0.071;0.729;-0.012;6.1;-7.6;22.9;46.08;1716;2018-04-16 23:00:20:877
-3.496;-9.076;0.522;-3.524;-9.136;0.528;0.028;0.06;-0.006;-0.007;0.456;-0.007;6.2;-7.5;22.9;46.08;1726;2018-04-16 23:00:20:887
-3.496;-9.076;0.522;-3.524;-9.136;0.528;0.028;0.06;-0.006;0.022;0.302;-0.007;6.2;-7.5;22.9;46.08;1736;2018-04-16 23:00:20:897
-3.475;-9.074;0.467;-3.525;-9.136;0.523;0.071;0.075;-0.078;0.034;0.169;-0.001;6.4;-7.5;22.9;46.08;1746;2018-04-16 23:00:20:907
-3.403;-9.072;0.396;-3.525;-9.136;0.523;0.071;0.075;-0.078;0.039;0.045;0.001;6.4;-7.5;22.9;46.08;1755;2018-04-16 23:00:20:916
-3.403;-9.072;0.396;-3.52;-9.138;0.529;0.155;0.052;-0.123;0.032;-0.061;0.004;6.5;-7.5;23.0;46.08;1766;2018-04-16 23:00:20:927
-3.357;-9.082;0.436;-3.52;-9.138;0.529;0.155;0.052;-0.123;0.015;-0.162;0.009;6.5;-7.5;23.0;46.08;1776;2018-04-16 23:00:20:937
-3.367;-9.093;0.523;-3.51;-9.141;0.544;0.143;0.048;-0.021;-0.002;-0.241;0.009;6.5;-7.5;23.0;46.08;1786;2018-04-16 23:00:20:947
-3.367;-9.093;0.523;-3.51;-9.141;0.544;0.143;0.048;-0.021;-0.017;-0.292;0.011;6.5;-7.5;23.0;46.08;1796;2018-04-16 23:00:20:957
-3.403;-9.091;0.633;-3.505;-9.141;0.564;0.086;0.067;0.097;-0.035;-0.324;0.009;6.5;-7.6;22.9;46.08;1806;2018-04-16 23:00:20:967
-3.446;-9.055;0.7;-3.505;-9.141;0.564;0.086;0.067;0.097;-0.04;-0.33;0.006;6.5;-7.6;22.9;46.08;1816;2018-04-16 23:00:20:977
-3.497;-9.068;0.688;-3.503;-9.141;0.583;0.006;0.073;0.105;-0.034;-0.324;0.007;6.4;-7.6;22.7;46.08;1826;2018-04-16 23:00:20:987
-3.497;-9.068;0.688;-3.503;-9.141;0.583;0.006;0.073;0.105;-0.034;-0.324;0.007;6.4;-7.6;22.7;46.08;1836;2018-04-16 23:00:20:997
-3.541;-9.068;0.637;-3.502;-9.14;0.605;-0.053;0.065;-0.008;-0.011;-0.318;0.01;6.3;-7.6;22.7;46.08;1846;2018-04-16 23:00:21:007
-3.584;-9.067;0.502;-3.502;-9.14;0.605;-0.053;0.065;-0.008;0.028;-0.354;0.011;6.3;-7.6;22.7;46.08;1856;2018-04-16 23:00:21:017
-3.584;-9.067;0.502;-3.5;-9.139;0.639;-0.104;0.08;-0.236;0.068;-0.419;0.012;6.2;-7.7;22.8;46.08;1866;2018-04-16 23:00:21:027
-3.639;-9.084;0.363;-3.5;-9.139;0.639;-0.104;0.08;-0.236;0.068;-0.419;0.012;6.2;-7.7;22.8;46.08;1876;2018-04-16 23:00:21:037
-3.7;-9.082;0.395;-3.496;-9.135;0.704;-0.205;0.053;-0.309;0.155;-0.572;0.012;6.0;-7.8;22.9;46.08;1886;2018-04-16 23:00:21:047
-3.7;-9.082;0.395;-3.496;-9.135;0.704;-0.205;0.053;-0.309;0.202;-0.657;0.011;6.0;-7.8;22.9;46.08;1896;2018-04-16 23:00:21:057
-3.718;-9.072;0.482;-3.49;-9.131;0.785;-0.228;0.062;-0.344;0.213;-0.67;0.013;5.7;-7.8;23.1;46.08;1906;2018-04-16 23:00:21:067
-3.694;-9.07;0.35;-3.49;-9.131;0.785;-0.228;0.062;-0.344;0.194;-0.634;0.016;5.7;-7.8;23.1;46.08;1916;2018-04-16 23:00:21:077
-3.694;-9.07;0.35;-3.485;-9.127;0.85;-0.172;0.041;-0.618;0.167;-0.58;0.021;5.5;-7.9;23.2;46.08;1926;2018-04-16 23:00:21:087
-3.627;-9.096;0.19;-3.485;-9.127;0.85;-0.172;0.041;-0.618;0.131;-0.542;0.026;5.5;-7.9;23.2;46.08;1936;2018-04-16 23:00:21:097
-3.572;-9.151;0.16;-3.481;-9.124;0.902;-0.091;-0.027;-0.741;0.109;-0.518;0.026;5.4;-7.9;23.2;46.08;1946;2018-04-16 23:00:21:107
-3.572;-9.151;0.16;-3.481;-9.124;0.902;-0.091;-0.027;-0.741;0.081;-0.479;0.024;5.4;-7.9;23.2;46.08;1956;2018-04-16 23:00:21:117
-3.509;-9.178;0.249;-3.477;-9.122;0.933;-0.022;-0.059;-0.656;0.049;-0.406;0.023;5.4;-7.9;23.1;43.64;1966;2018-04-16 23:00:21:127
-3.469;-9.142;0.333;-3.477;-9.122;0.933;-0.022;-0.059;-0.656;0.011;-0.309;0.021;5.4;-7.9;23.1;43.64;1976;2018-04-16 23:00:21:137
-3.469;-9.142;0.333;-3.475;-9.122;0.936;0.045;-0.013;-0.562;-0.023;-0.189;0.012;5.5;-7.9;23.1;43.64;1986;2018-04-16 23:00:21:147
-3.439;-9.114;0.412;-3.475;-9.122;0.936;0.045;-0.013;-0.562;-0.05;-0.066;0.007;5.5;-7.9;23.1;43.64;1996;2018-04-16 23:00:21:157
-3.428;-9.099;0.463;-3.475;-9.125;0.909;0.047;0.026;-0.446;-0.076;0.062;0.001;5.6;-7.8;23.1;43.64;2006;2018-04-16 23:00:21:167
-3.428;-9.099;0.463;-3.475;-9.125;0.909;0.047;0.026;-0.446;-0.103;0.184;-0.01;5.6;-7.8;23.1;43.64;2016;2018-04-16 23:00:21:177
-3.48;-9.086;0.53;-3.477;-9.129;0.857;-0.029;0.035;-0.311;-0.117;0.292;-0.015;5.7;-7.8;23.1;43.64;2026;2018-04-16 23:00:21:187
-3.545;-9.092;0.588;-3.477;-9.129;0.857;-0.029;0.035;-0.311;-0.131;0.384;-0.02;5.7;-7.8;23.1;43.64;2036;2018-04-16 23:00:21:197
-3.545;-9.092;0.588;-3.48;-9.133;0.799;-0.134;0.063;-0.18;-0.137;0.447;-0.026;5.8;-7.8;23.1;43.64;2046;2018-04-16 23:00:21:207
-3.634;-9.062;0.614;-3.48;-9.133;0.799;-0.134;0.063;-0.18;-0.127;0.495;-0.028;5.8;-7.8;23.1;43.64;2056;2018-04-16 23:00:21:217
-3.686;-9.054;0.618;-3.485;-9.137;0.74;-0.201;0.083;-0.122;-0.112;0.5;-0.024;6.0;-7.8;22.9;43.64;2066;2018-04-16 23:00:21:227
-3.686;-9.054;0.618;-3.485;-9.137;0.74;-0.201;0.083;-0.122;-0.112;0.5;-0.024;6.0;-7.8;22.9;43.64;2076;2018-04-16 23:00:21:237
-3.666;-9.023;0.593;-3.489;-9.139;0.69;-0.173;0.113;-0.101;-0.087;0.474;-0.024;6.2;-7.8;22.9;43.64;2086;2018-04-16 23:00:21:247
-3.655;-9.009;0.576;-3.489;-9.139;0.69;-0.173;0.113;-0.101;-0.077;0.442;-0.023;6.2;-7.8;22.9;43.64;2096;2018-04-16 23:00:21:257
-3.655;-9.009;0.576;-3.493;-9.141;0.649;-0.161;0.124;-0.09;-0.064;0.404;-0.023;6.3;-7.8;23.0;43.64;2105;2018-04-16 23:00:21:266
-3.656;-9.021;0.552;-3.493;-9.141;0.649;-0.161;0.124;-0.09;-0.051;0.354;-0.02;6.3;-7.8;22.9;43.64;2116;2018-04-16 23:00:21:277
-3.657;-9.035;0.558;-3.495;-9.141;0.622;-0.16;0.125;-0.069;-0.026;0.266;-0.015;6.3;-7.8;22.9;43.64;2126;2018-04-16 23:00:21:287
-3.657;-9.035;0.558;-3.495;-9.141;0.622;-0.16;0.125;-0.069;-0.011;0.206;-0.009;6.4;-7.7;23.0;43.64;2136;2018-04-16 23:00:21:297
-3.637;-9.037;0.543;-3.495;-9.141;0.622;-0.16;0.125;-0.069;-0.011;0.206;-0.009;6.4;-7.7;23.0;43.64;2146;2018-04-16 23:00:21:307
-3.625;-9.061;0.5;-3.497;-9.142;0.608;-0.121;0.094;-0.072;-0.001;0.144;-0.006;6.5;-7.7;23.0;43.64;2156;2018-04-16 23:00:21:317
-3.625;-9.061;0.5;-3.497;-9.142;0.608;-0.121;0.094;-0.072;0.001;0.051;-0.001;6.5;-7.7;23.0;43.64;2166;2018-04-16 23:00:21:327
-3.625;-9.061;0.5;-3.502;-9.14;0.6;-0.118;0.09;-0.107;0.001;0.051;-0.001;6.5;-7.7;23.0;43.64;2177;2018-04-16 23:00:21:338
-3.625;-9.061;0.5;-3.502;-9.14;0.6;-0.118;0.09;-0.107;0.001;0.051;-0.001;6.5;-7.7;23.0;43.64;2186;2018-04-16 23:00:21:347
-3.637;-9.063;0.497;-3.506;-9.139;0.599;-0.131;0.076;-0.102;0.001;-0.012;0.001;6.5;-7.6;23.1;43.64;2196;2018-04-16 23:00:21:357
-3.637;-9.063;0.497;-3.506;-9.139;0.599;-0.131;0.076;-0.102;0.001;-0.012;0.001;6.5;-7.6;23.1;43.64;2206;2018-04-16 23:00:21:367
-3.679;-9.07;0.514;-3.516;-9.134;0.612;-0.163;0.064;-0.099;0.033;-0.21;0.006;6.5;-7.7;23.0;43.64;2216;2018-04-16 23:00:21:377
-3.679;-9.07;0.514;-3.516;-9.134;0.612;-0.163;0.064;-0.099;0.072;-0.294;0.013;6.5;-7.7;23.0;43.64;2226;2018-04-16 23:00:21:387
-3.62;-9.072;0.479;-3.518;-9.132;0.638;-0.102;0.06;-0.16;0.081;-0.316;0.016;6.4;-7.7;23.0;43.64;2236;2018-04-16 23:00:21:397
-3.558;-9.052;0.425;-3.518;-9.132;0.638;-0.102;0.06;-0.16;0.081;-0.327;0.017;6.4;-7.8;23.1;43.64;2250;2018-04-16 23:00:21:411
-3.506;-9.073;0.342;-3.517;-9.129;0.674;-0.011;0.092;-0.277;0.083;-0.337;0.017;6.4;-7.8;23.1;43.64;2256;2018-04-16 23:00:21:417
-3.506;-9.073;0.342;-3.515;-9.127;0.709;0.033;0.019;-0.367;0.083;-0.337;0.017;6.4;-7.8;23.0;43.64;2266;2018-04-16 23:00:21:427
-3.49;-9.153;0.327;-3.515;-9.127;0.709;0.033;0.019;-0.367;0.083;-0.337;0.016;6.4;-7.8;23.0;43.64;2276;2018-04-16 23:00:21:437
-3.49;-9.153;0.327;-3.512;-9.126;0.741;0.04;-0.033;-0.406;0.078;-0.318;0.013;6.3;-7.8;22.9;49.24;2286;2018-04-16 23:00:21:447
-3.456;-9.176;0.31;-3.512;-9.126;0.741;0.04;-0.033;-0.406;0.07;-0.277;0.011;6.3;-7.8;22.9;49.24;2296;2018-04-16 23:00:21:457
-3.407;-9.16;0.245;-3.51;-9.125;0.762;0.103;-0.035;-0.517;0.06;-0.225;0.01;6.3;-7.8;22.9;49.24;2306;2018-04-16 23:00:21:467
-3.407;-9.16;0.245;-3.51;-9.125;0.762;0.103;-0.035;-0.517;0.028;-0.144;0.005;6.3;-7.8;22.9;49.24;2316;2018-04-16 23:00:21:477
-3.388;-9.179;0.2;-3.506;-9.126;0.765;0.083;-0.055;-0.547;-0.001;-0.086;-0.001;6.3;-7.8;22.9;49.24;2325;2018-04-16 23:00:21:486
-3.442;-9.153;0.247;-3.505;-9.128;0.755;0.03;-0.034;-0.473;-0.034;-0.013;-0.004;6.2;-7.9;22.9;49.24;2336;2018-04-16 23:00:21:497
-3.521;-9.117;0.356;-3.505;-9.128;0.755;0.03;-0.034;-0.473;-0.034;-0.013;-0.004;6.2;-7.9;22.9;49.24;2346;2018-04-16 23:00:21:507
-3.521;-9.117;0.356;-3.506;-9.13;0.721;-0.066;0.057;-0.333;-0.084;0.109;-0.009;6.2;-7.9;22.8;49.24;2355;2018-04-16 23:00:21:516
-3.591;-9.05;0.413;-3.506;-9.13;0.721;-0.066;0.057;-0.333;-0.099;0.178;-0.007;6.2;-7.9;22.8;49.24;2366;2018-04-16 23:00:21:527
-3.631;-9.044;0.403;-3.508;-9.131;0.698;-0.12;0.087;-0.275;-0.1;0.228;-0.006;6.2;-7.9;22.9;49.24;2376;2018-04-16 23:00:21:537
-3.631;-9.044;0.403;-3.513;-9.132;0.659;-0.12;0.087;-0.275;-0.088;0.248;0.0;6.2;-7.9;22.9;49.24;2385;2018-04-16 23:00:21:546
-3.589;-9.075;0.402;-3.513;-9.132;0.659;-0.043;0.046;-0.248;-0.081;0.257;0.001;6.2;-7.9;22.8;49.24;2395;2018-04-16 23:00:21:556
-3.548;-9.074;0.425;-3.513;-9.132;0.659;-0.043;0.046;-0.248;-0.081;0.25;0.006;6.2;-7.9;22.8;49.24;2406;2018-04-16 23:00:21:567
-3.482;-9.074;0.447;-3.518;-9.133;0.624;-0.004;0.051;-0.199;-0.089;0.247;0.009;6.2;-7.9;22.8;49.24;2416;2018-04-16 23:00:21:577
-3.482;-9.074;0.447;-3.518;-9.133;0.624;-0.004;0.051;-0.199;-0.089;0.247;0.009;6.3;-7.9;22.7;49.24;2426;2018-04-16 23:00:21:587
-3.445;-9.069;0.488;-3.522;-9.133;0.588;0.061;0.062;-0.125;-0.094;0.238;0.007;6.3;-7.9;22.7;49.24;2436;2018-04-16 23:00:21:597
-3.45;-9.062;0.527;-3.524;-9.135;0.557;0.074;0.072;-0.03;-0.093;0.21;0.005;6.3;-7.9;22.8;49.24;2446;2018-04-16 23:00:21:607
-3.45;-9.062;0.527;-3.524;-9.135;0.557;0.074;0.072;-0.03;-0.068;0.17;-0.001;6.3;-7.9;22.8;49.24;2455;2018-04-16 23:00:21:616
-3.458;-9.056;0.581;-3.524;-9.135;0.557;0.074;0.072;-0.03;-0.068;0.17;-0.001;6.3;-7.9;22.7;49.24;2466;2018-04-16 23:00:21:627
-3.511;-9.052;0.611;-3.525;-9.135;0.535;0.049;0.079;0.054;-0.056;0.148;-0.004;6.3;-7.9;22.7;49.24;2475;2018-04-16 23:00:21:636
-3.537;-9.06;0.578;-3.525;-9.135;0.535;0.049;0.079;0.054;-0.034;0.123;-0.005;6.4;-8.0;22.7;49.24;2487;2018-04-16 23:00:21:648
-3.582;-9.018;0.57;-3.527;-9.136;0.522;-0.019;0.094;0.057;-0.017;0.088;-0.002;6.4;-8.0;22.7;49.24;2496;2018-04-16 23:00:21:657
-3.582;-9.018;0.57;-3.531;-9.134;0.517;-0.019;0.113;0.054;-0.017;0.088;-0.002;6.4;-8.0;22.7;49.24;2506;2018-04-16 23:00:21:667
-3.632;-9.018;0.563;-3.531;-9.134;0.517;-0.069;0.113;0.054;0.016;0.029;0.002;6.4;-8.0;22.7;49.24;2516;2018-04-16 23:00:21:677
-3.632;-9.018;0.563;-3.537;-9.132;0.524;-0.11;0.108;0.05;0.033;-0.004;0.002;6.5;-7.9;22.7;49.24;2526;2018-04-16 23:00:21:687
-3.655;-9.039;0.567;-3.537;-9.132;0.524;-0.11;0.108;0.05;0.046;-0.026;0.002;6.5;-7.9;22.7;49.24;2536;2018-04-16 23:00:21:697
-3.628;-9.035;0.545;-3.543;-9.129;0.537;-0.086;0.094;0.008;0.056;-0.044;0.007;6.4;-7.9;22.6;49.24;2546;2018-04-16 23:00:21:707
-3.628;-9.035;0.545;-3.543;-9.129;0.537;-0.086;0.094;0.008;0.056;-0.044;0.007;6.4;-7.9;22.6;49.24;2556;2018-04-16 23:00:21:717
-3.613;-9.045;0.48;-3.546;-9.126;0.551;-0.066;0.081;-0.071;0.057;-0.066;0.009;6.4;-7.9;22.6;49.24;2566;2018-04-16 23:00:21:727
-3.613;-9.045;0.48;-3.546;-9.126;0.551;-0.066;0.081;-0.071;0.057;-0.066;0.009;6.4;-7.9;22.6;49.24;2576;2018-04-16 23:00:21:737
-3.6;-9.072;0.431;-3.548;-9.125;0.558;-0.052;0.054;-0.127;0.077;-0.11;0.011;6.4;-7.9;22.7;49.24;2586;2018-04-16 23:00:21:747
-3.57;-9.115;0.368;-3.548;-9.124;0.58;-0.021;0.009;-0.213;0.092;-0.176;0.009;6.4;-7.9;22.7;49.24;2596;2018-04-16 23:00:21:757
-3.57;-9.115;0.368;-3.548;-9.124;0.58;-0.021;0.009;-0.213;0.09;-0.193;0.011;6.4;-7.9;22.8;51.11;2606;2018-04-16 23:00:21:767
-3.575;-9.158;0.347;-3.548;-9.122;0.605;-0.025;-0.019;-0.275;0.09;-0.193;0.011;6.4;-7.9;22.8;51.11;2616;2018-04-16 23:00:21:777
-3.555;-9.118;0.306;-3.548;-9.122;0.605;-0.025;-0.019;-0.275;0.071;-0.194;0.012;6.4;-7.9;22.9;51.11;2626;2018-04-16 23:00:21:787
-3.555;-9.118;0.306;-3.548;-9.121;0.625;-0.035;0.04;-0.333;0.057;-0.188;0.013;6.4;-7.9;22.9;51.11;2636;2018-04-16 23:00:21:797
-3.587;-9.084;0.311;-3.548;-9.121;0.625;-0.035;0.04;-0.333;0.035;-0.173;0.015;6.4;-7.9;22.9;51.11;2645;2018-04-16 23:00:21:806
-3.594;-9.075;0.375;-3.549;-9.12;0.635;-0.044;0.044;-0.261;0.02;-0.149;0.015;6.4;-7.9;22.9;51.11;2656;2018-04-16 23:00:21:817
-3.594;-9.103;0.408;-3.55;-9.119;0.636;-0.052;0.016;-0.228;0.005;-0.114;0.013;6.4;-7.9;23.0;51.11;2666;2018-04-16 23:00:21:827
-3.602;-9.103;0.408;-3.55;-9.119;0.636;-0.052;0.016;-0.228;-0.007;-0.062;0.013;6.4;-7.9;23.0;51.11;2675;2018-04-16 23:00:21:836
-3.579;-9.091;0.419;-3.554;-9.119;0.628;-0.019;0.023;-0.219;-0.018;-0.01;0.015;6.4;-7.8;22.9;51.11;2686;2018-04-16 23:00:21:847
-3.546;-9.086;0.401;-3.554;-9.119;0.628;-0.019;0.023;-0.219;-0.022;0.034;0.015;6.4;-7.8;22.9;51.11;2696;2018-04-16 23:00:21:857
-3.546;-9.086;0.401;-3.554;-9.119;0.628;-0.019;0.023;-0.219;-0.024;0.065;0.01;6.4;-7.8;22.9;51.11;2706;2018-04-16 23:00:21:867
-3.522;-9.103;0.435;-3.556;-9.119;0.613;0.034;0.016;-0.178;-0.027;0.101;0.01;6.3;-7.9;22.9;51.11;2716;2018-04-16 23:00:21:877
-3.528;-9.072;0.48;-3.556;-9.119;0.613;0.034;0.016;-0.178;-0.032;0.134;0.004;6.3;-7.9;22.9;51.11;2726;2018-04-16 23:00:21:887
-3.541;-9.041;0.52;-3.558;-9.119;0.594;0.037;0.068;-0.084;-0.045;0.182;-0.001;6.3;-7.9;22.9;51.11;2736;2018-04-16 23:00:21:897
-3.541;-9.041;0.52;-3.56;-9.12;0.57;-0.014;0.107;-0.049;-0.046;0.209;-0.001;6.3;-7.9;22.9;51.11;2746;2018-04-16 23:00:21:907
-3.583;-9.033;0.536;-3.56;-9.12;0.57;-0.014;0.107;-0.049;-0.046;0.209;-0.001;6.4;-7.8;22.8;51.11;2756;2018-04-16 23:00:21:917
-3.583;-9.033;0.536;-3.56;-9.12;0.57;-0.014;0.107;-0.049;-0.045;0.226;-0.005;6.4;-7.8;22.8;51.11;2766;2018-04-16 23:00:21:927
-3.637;-9.046;0.492;-3.563;-9.12;0.546;-0.065;0.061;-0.024;-0.023;0.183;0.002;6.4;-7.8;22.8;51.11;2776;2018-04-16 23:00:21:937
-3.637;-9.046;0.492;-3.563;-9.12;0.546;-0.065;0.061;-0.024;-0.023;0.183;0.002;6.4;-7.8;22.8;51.11;2786;2018-04-16 23:00:21:947
-3.634;-9.058;0.487;-3.566;-9.12;0.526;-0.067;0.07;-0.041;-0.013;0.142;0.007;6.4;-7.7;22.8;51.11;2796;2018-04-16 23:00:21:957
-3.634;-9.064;0.469;-3.568;-9.12;0.52;-0.055;0.057;-0.049;0.004;0.075;0.01;6.4;-7.7;22.8;51.11;2806;2018-04-16 23:00:21:967
-3.604;-9.064;0.469;-3.571;-9.119;0.516;-0.028;0.053;-0.041;0.004;0.075;0.01;6.4;-7.7;22.8;51.11;2816;2018-04-16 23:00:21:977
-3.606;-9.075;0.47;-3.571;-9.119;0.516;-0.028;0.053;-0.041;0.001;0.023;0.013;6.4;-7.7;22.8;51.11;2826;2018-04-16 23:00:21:987
-3.59;-9.08;0.481;-3.574;-9.118;0.514;-0.016;0.038;-0.033;-0.006;-0.004;0.013;6.4;-7.7;22.9;51.11;2836;2018-04-16 23:00:21:997
-3.59;-9.08;0.481;-3.574;-9.118;0.514;-0.016;0.038;-0.033;-0.006;-0.004;0.013;6.4;-7.7;22.9;51.11;2845;2018-04-16 23:00:22:006
-3.572;-9.078;0.479;-3.577;-9.117;0.514;0.014;0.035;-0.044;-0.015;-0.04;0.018;6.4;-7.8;22.9;51.11;2856;2018-04-16 23:00:22:017
-3.572;-9.078;0.479;-3.577;-9.117;0.514;0.014;0.035;-0.044;-0.013;-0.086;0.015;6.4;-7.8;22.9;51.11;2866;2018-04-16 23:00:22:027
-3.581;-9.078;0.448;-3.578;-9.116;0.516;-0.003;0.038;-0.068;-0.004;-0.121;0.013;6.4;-7.7;23.0;51.11;2876;2018-04-16 23:00:22:037
-3.597;-9.078;0.468;-3.578;-9.116;0.516;-0.003;0.038;-0.068;0.002;-0.15;0.015;6.4;-7.7;23.0;51.11;2886;2018-04-16 23:00:22:047
-3.597;-9.078;0.468;-3.579;-9.115;0.526;-0.015;0.039;-0.059;0.002;-0.15;0.015;6.4;-7.7;23.0;51.11;2897;2018-04-16 23:00:22:058
-3.601;-9.067;0.474;-3.58;-9.114;0.541;-0.006;0.059;-0.071;0.015;-0.177;0.011;6.4;-7.7;23.0;51.11;2907;2018-04-16 23:00:22:068
-3.584;-9.054;0.456;-3.58;-9.114;0.541;-0.006;0.059;-0.071;0.018;-0.184;0.011;6.4;-7.7;23.0;51.11;2916;2018-04-16 23:00:22:077
-3.572;-9.051;0.457;-3.58;-9.114;0.548;-0.014;0.072;-0.093;0.018;-0.176;0.011;6.4;-7.8;23.0;51.15;2926;2018-04-16 23:00:22:087
-3.572;-9.051;0.457;-3.58;-9.113;0.561;0.009;0.045;-0.086;0.018;-0.144;0.009;6.4;-7.8;23.0;51.15;2936;2018-04-16 23:00:22:097
-3.597;-9.07;0.488;-3.58;-9.113;0.561;0.009;0.045;-0.086;0.016;-0.114;0.007;6.3;-7.8;22.9;51.15;2946;2018-04-16 23:00:22:107
-3.591;-9.075;0.476;-3.58;-9.112;0.57;-0.011;0.037;-0.093;0.016;-0.114;0.007;6.3;-7.8;22.9;51.15;2955;2018-04-16 23:00:22:116
-3.591;-9.075;0.476;-3.58;-9.112;0.57;-0.011;0.037;-0.093;0.012;-0.061;0.004;6.3;-7.8;22.9;51.15;2966;2018-04-16 23:00:22:127
-3.575;-9.091;0.456;-3.58;-9.112;0.571;-0.002;0.027;-0.113;0.009;-0.021;0.002;6.3;-7.8;22.9;51.15;2976;2018-04-16 23:00:22:137
-3.601;-9.082;0.45;-3.58;-9.112;0.571;-0.002;0.027;-0.113;0.001;0.022;0.0;6.3;-7.9;23.0;51.15;2986;2018-04-16 23:00:22:147
-3.601;-9.082;0.45;-3.58;-9.112;0.571;-0.002;0.027;-0.113;-0.007;0.061;-0.001;6.3;-7.9;23.0;51.15;2996;2018-04-16 23:00:22:157
-3.608;-9.061;0.424;-3.581;-9.112;0.562;-0.027;0.051;-0.138;-0.016;0.087;-0.002;6.3;-7.9;23.0;51.15;3006;2018-04-16 23:00:22:167
-3.616;-9.033;0.397;-3.583;-9.112;0.549;-0.033;0.079;-0.152;-0.016;0.092;-0.001;6.3;-7.9;23.0;51.15;3016;2018-04-16 23:00:22:177
-3.616;-9.033;0.397;-3.583;-9.112;0.549;-0.033;0.079;-0.152;-0.016;0.092;-0.001;6.3;-7.9;23.0;51.15;3028;2018-04-16 23:00:22:189
-3.616;-9.033;0.397;-3.583;-9.112;0.549;-0.033;0.079;-0.152;-0.016;0.092;-0.001;6.3;-7.9;23.0;51.15;3036;2018-04-16 23:00:22:197
-3.616;-9.048;0.405;-3.584;-9.112;0.543;-0.032;0.064;-0.138;-0.015;0.083;0.001;6.3;-7.8;23.1;51.15;3046;2018-04-16 23:00:22:207
-3.596;-9.054;0.497;-3.588;-9.111;0.527;-0.008;0.058;-0.03;-0.026;0.086;0.006;6.3;-7.8;23.1;51.15;3056;2018-04-16 23:00:22:217
-3.596;-9.054;0.497;-3.588;-9.111;0.527;-0.008;0.058;-0.03;-0.031;0.089;0.007;6.3;-7.8;23.1;51.15;3066;2018-04-16 23:00:22:227
-3.583;-9.045;0.505;-3.591;-9.111;0.514;0.005;0.051;-0.004;-0.031;0.089;0.007;6.3;-7.8;23.1;51.15;3076;2018-04-16 23:00:22:237
-3.603;-9.06;0.521;-3.591;-9.111;0.514;0.005;0.051;-0.004;-0.029;0.088;0.009;6.3;-7.9;23.0;51.15;3085;2018-04-16 23:00:22:246
-3.603;-9.06;0.521;-3.594;-9.11;0.505;-0.043;0.027;0.009;-0.024;0.075;0.006;6.3;-7.9;23.0;51.15;3096;2018-04-16 23:00:22:257
-3.628;-9.087;0.517;-3.594;-9.11;0.505;-0.043;0.027;0.009;-0.011;0.054;0.006;6.3;-7.9;23.1;51.15;3106;2018-04-16 23:00:22:267
-3.661;-9.08;0.484;-3.597;-9.109;0.503;-0.064;0.029;-0.019;0.0;0.028;0.007;6.3;-7.9;23.1;51.15;3116;2018-04-16 23:00:22:277
-3.661;-9.08;0.484;-3.597;-9.109;0.503;-0.064;0.029;-0.019;0.012;0.0;0.01;6.3;-7.9;23.0;51.15;3126;2018-04-16 23:00:22:287
-3.683;-9.072;0.453;-3.598;-9.109;0.504;-0.085;0.037;-0.052;0.022;-0.033;0.011;6.3;-7.9;23.0;51.15;3136;2018-04-16 23:00:22:297
-3.646;-9.062;0.429;-3.601;-9.107;0.512;-0.038;0.039;-0.097;0.034;-0.062;0.011;6.4;-7.8;23.2;51.15;3146;2018-04-16 23:00:22:307
-3.628;-9.075;0.421;-3.601;-9.107;0.512;-0.038;0.039;-0.097;0.032;-0.086;0.011;6.4;-7.8;23.2;51.15;3156;2018-04-16 23:00:22:317
-3.628;-9.075;0.421;-3.602;-9.106;0.523;-0.019;0.045;-0.11;0.034;-0.092;0.011;6.4;-7.9;23.1;51.15;3166;2018-04-16 23:00:22:327
-3.613;-9.056;0.394;-3.602;-9.106;0.523;-0.019;0.045;-0.11;0.028;-0.097;0.011;6.4;-7.9;23.1;51.15;3176;2018-04-16 23:00:22:337
-3.613;-9.056;0.394;-3.602;-9.106;0.523;-0.019;0.045;-0.11;0.028;-0.097;0.011;6.4;-7.9;23.0;51.15;3186;2018-04-16 23:00:22:347
-3.57;-9.042;0.387;-3.604;-9.105;0.533;0.034;0.063;-0.146;0.028;-0.098;0.012;6.4;-7.9;23.0;51.15;3195;2018-04-16 23:00:22:356
-3.566;-9.043;0.412;-3.604;-9.105;0.533;0.034;0.063;-0.146;0.021;-0.081;0.009;6.4;-7.9;23.0;51.15;3206;2018-04-16 23:00:22:367
-3.524;-9.051;0.408;-3.604;-9.104;0.54;0.056;0.061;-0.124;0.012;-0.049;0.007;6.4;-7.9;23.0;51.15;3216;2018-04-16 23:00:22:377
-3.537;-9.054;0.407;-3.604;-9.105;0.538;0.066;0.051;-0.131;-0.006;-0.002;0.002;6.4;-7.9;23.0;51.15;3226;2018-04-16 23:00:22:387
-3.537;-9.054;0.407;-3.604;-9.105;0.538;0.066;0.051;-0.131;-0.006;-0.002;0.002;6.4;-7.9;23.1;51.15;3236;2018-04-16 23:00:22:397
-3.567;-9.061;0.409;-3.604;-9.105;0.535;0.036;0.044;-0.125;-0.016;0.023;-0.004;6.4;-7.9;23.1;51.15;3246;2018-04-16 23:00:22:407
-3.615;-9.062;0.431;-3.604;-9.105;0.525;-0.012;0.043;-0.094;-0.021;0.053;-0.004;6.4;-7.9;23.2;51.15;3256;2018-04-16 23:00:22:417
-3.615;-9.062;0.431;-3.604;-9.105;0.525;-0.012;0.043;-0.094;-0.018;0.066;-0.005;6.4;-7.9;23.2;50.53;3265;2018-04-16 23:00:22:426
-3.609;-9.056;0.469;-3.604;-9.106;0.515;-0.003;0.051;-0.041;-0.018;0.066;-0.005;6.5;-7.8;23.3;50.53;3276;2018-04-16 23:00:22:437
-3.618;-9.046;0.49;-3.604;-9.106;0.515;-0.003;0.051;-0.041;-0.026;0.084;-0.004;6.5;-7.8;23.3;50.53;3286;2018-04-16 23:00:22:447
-3.618;-9.046;0.49;-3.605;-9.106;0.503;-0.016;0.05;0.008;-0.026;0.101;-0.006;6.5;-7.8;23.3;50.53;3295;2018-04-16 23:00:22:456
-3.637;-9.037;0.522;-3.605;-9.106;0.503;-0.016;0.05;0.008;-0.026;0.109;-0.006;6.5;-7.8;23.4;50.53;3306;2018-04-16 23:00:22:467
-3.639;-9.043;0.521;-3.606;-9.106;0.496;-0.033;0.07;0.031;-0.021;0.115;-0.005;6.5;-7.8;23.3;50.53;3316;2018-04-16 23:00:22:477
-3.639;-9.041;0.509;-3.606;-9.106;0.486;-0.033;0.066;0.023;-0.012;0.108;-0.006;6.5;-7.8;23.3;50.53;3326;2018-04-16 23:00:22:487
-3.639;-9.041;0.509;-3.606;-9.106;0.486;-0.033;0.066;0.023;-0.012;0.108;-0.006;6.5;-7.9;23.4;50.53;3335;2018-04-16 23:00:22:496
-3.626;-9.029;0.485;-3.607;-9.107;0.48;-0.031;0.07;-0.006;0.002;0.073;-0.007;6.5;-7.9;23.4;50.53;3346;2018-04-16 23:00:22:507
-3.632;-9.056;0.481;-3.607;-9.107;0.48;-0.031;0.07;-0.006;0.005;0.053;-0.005;6.4;-7.9;23.3;50.53;3356;2018-04-16 23:00:22:517
-3.632;-9.056;0.481;-3.607;-9.107;0.478;0.007;0.051;-0.002;0.005;0.034;0.0;6.4;-7.9;23.3;50.53;3366;2018-04-16 23:00:22:527
-3.609;-9.058;0.47;-3.607;-9.107;0.478;0.007;0.051;-0.002;0.005;0.02;-0.001;6.4;-7.9;23.4;50.53;3376;2018-04-16 23:00:22:537
-3.609;-9.058;0.47;-3.607;-9.107;0.478;0.007;0.051;-0.002;0.002;0.004;0.001;6.4;-7.9;23.4;50.53;3386;2018-04-16 23:00:22:547
-3.546;-9.054;0.456;-3.607;-9.107;0.477;0.061;0.053;-0.021;-0.001;-0.016;0.002;6.4;-7.9;23.3;50.53;3397;2018-04-16 23:00:22:558
-3.558;-9.057;0.463;-3.607;-9.107;0.478;0.049;0.049;-0.015;-0.001;-0.016;0.002;6.4;-7.9;23.3;50.53;3406;2018-04-16 23:00:22:567
-3.558;-9.057;0.463;-3.607;-9.107;0.478;0.049;0.049;-0.015;0.005;-0.053;-0.001;6.4;-7.9;23.4;50.53;3416;2018-04-16 23:00:22:577
-3.569;-9.039;0.497;-3.605;-9.107;0.488;0.022;0.071;0.014;0.016;-0.071;-0.001;6.4;-7.9;23.4;50.53;3426;2018-04-16 23:00:22:587
-3.594;-9.044;0.523;-3.605;-9.107;0.488;0.022;0.071;0.014;0.024;-0.076;-0.004;6.4;-8.0;23.2;50.53;3436;2018-04-16 23:00:22:597
-3.594;-9.044;0.523;-3.603;-9.107;0.498;-0.001;0.062;0.007;0.024;-0.073;-0.005;6.4;-8.0;23.2;50.53;3446;2018-04-16 23:00:22:607
-3.598;-9.062;0.506;-3.603;-9.107;0.498;-0.001;0.062;0.007;0.026;-0.059;-0.006;6.4;-8.0;23.4;50.53;3456;2018-04-16 23:00:22:617
-3.613;-9.049;0.494;-3.603;-9.107;0.498;-0.001;0.062;0.007;0.022;-0.043;-0.004;6.4;-8.0;23.4;50.53;3467;2018-04-16 23:00:22:628
-3.615;-9.041;0.475;-3.602;-9.107;0.505;-0.003;0.064;-0.018;0.02;-0.022;-0.006;6.4;-8.0;23.4;50.53;3476;2018-04-16 23:00:22:637
-3.615;-9.041;0.475;-3.602;-9.107;0.509;-0.011;0.065;-0.029;0.02;-0.012;-0.006;6.4;-8.0;23.5;50.53;3486;2018-04-16 23:00:22:647
-3.616;-9.036;0.456;-3.602;-9.107;0.509;-0.011;0.065;-0.029;0.02;-0.012;-0.006;6.4;-8.0;23.5;50.53;3496;2018-04-16 23:00:22:657
-3.632;-9.055;0.458;-3.602;-9.107;0.512;-0.03;0.052;-0.054;0.02;-0.009;-0.006;6.4;-8.0;23.5;50.53;3506;2018-04-16 23:00:22:667
-3.632;-9.055;0.458;-3.602;-9.107;0.512;-0.03;0.052;-0.054;0.026;-0.005;-0.004;6.4;-8.0;23.5;50.53;3516;2018-04-16 23:00:22:677
-3.634;-9.056;0.45;-3.602;-9.107;0.515;-0.047;0.049;-0.059;0.02;-0.002;-0.002;6.4;-8.0;23.4;50.53;3526;2018-04-16 23:00:22:687
-3.633;-9.042;0.454;-3.602;-9.107;0.515;-0.047;0.049;-0.059;0.015;0.005;-0.004;6.4;-8.0;23.4;50.53;3536;2018-04-16 23:00:22:697
-3.63;-9.03;0.448;-3.603;-9.106;0.514;-0.027;0.077;-0.066;0.005;0.01;0.002;6.3;-7.9;23.4;50.53;3547;2018-04-16 23:00:22:708
-3.63;-9.03;0.448;-3.603;-9.106;0.514;-0.027;0.077;-0.066;-0.001;0.016;0.001;6.3;-7.9;23.4;50.53;3556;2018-04-16 23:00:22:717
-3.609;-9.041;0.431;-3.604;-9.106;0.511;-0.012;0.063;-0.077;-0.01;0.006;0.001;6.3;-8.0;23.3;50.53;3566;2018-04-16 23:00:22:727
-3.615;-9.056;0.432;-3.604;-9.106;0.511;-0.012;0.063;-0.077;-0.01;0.006;0.001;6.3;-8.0;23.3;50.53;3576;2018-04-16 23:00:22:737
-3.615;-9.056;0.432;-3.604;-9.106;0.511;-0.031;0.04;-0.074;0.0;-0.023;0.001;6.3;-8.0;23.3;50.81;3586;2018-04-16 23:00:22:747
-3.642;-9.078;0.436;-3.604;-9.106;0.511;-0.031;0.04;-0.074;0.01;-0.044;0.004;6.3;-8.0;23.3;50.81;3595;2018-04-16 23:00:22:756
-3.613;-9.072;0.47;-3.605;-9.105;0.517;-0.008;0.034;-0.047;0.017;-0.059;0.005;6.3;-8.0;23.2;50.81;3605;2018-04-16 23:00:22:766
-3.613;-9.072;0.47;-3.605;-9.105;0.517;-0.008;0.034;-0.047;0.016;-0.05;0.002;6.3;-8.0;23.2;50.81;3615;2018-04-16 23:00:22:776
-3.56;-9.044;0.49;-3.604;-9.105;0.522;0.058;0.071;-0.046;0.007;-0.033;0.0;6.3;-7.9;23.2;50.81;3625;2018-04-16 23:00:22:786
-3.548;-9.026;0.458;-3.604;-9.105;0.522;0.058;0.071;-0.046;0.007;-0.033;0.0;6.3;-7.9;23.2;50.81;3635;2018-04-16 23:00:22:796
-3.548;-9.026;0.458;-3.603;-9.106;0.522;0.041;0.07;-0.065;0.002;-0.017;-0.004;6.3;-7.9;23.2;50.81;3646;2018-04-16 23:00:22:807
-3.575;-9.041;0.458;-3.603;-9.106;0.522;0.041;0.07;-0.065;0.01;-0.02;-0.006;6.3;-7.9;23.2;50.81;3656;2018-04-16 23:00:22:817
-3.6;-9.046;0.508;-3.602;-9.106;0.525;0.002;0.06;-0.018;0.012;-0.02;-0.005;6.3;-8.0;23.1;50.81;3666;2018-04-16 23:00:22:827
-3.6;-9.046;0.508;-3.602;-9.106;0.525;0.002;0.06;-0.018;0.017;-0.017;-0.005;6.3;-8.0;23.1;50.81;3676;2018-04-16 23:00:22:837
-3.614;-9.031;0.485;-3.601;-9.106;0.528;-0.014;0.069;-0.052;0.016;-0.01;-0.006;6.3;-8.0;23.1;50.81;3686;2018-04-16 23:00:22:847
-3.621;-9.038;0.468;-3.601;-9.106;0.528;-0.014;0.069;-0.052;0.016;-0.01;-0.006;6.3;-8.0;23.1;50.81;3696;2018-04-16 23:00:22:857
-3.621;-9.038;0.468;-3.601;-9.106;0.531;-0.028;0.066;-0.087;0.016;-0.01;-0.004;6.3;-8.0;23.3;50.81;3706;2018-04-16 23:00:22:867
-3.633;-9.05;0.436;-3.601;-9.106;0.531;-0.028;0.066;-0.087;0.017;-0.021;-0.01;6.3;-8.0;23.3;50.81;3716;2018-04-16 23:00:22:877
-3.646;-9.055;0.426;-3.6;-9.106;0.535;-0.047;0.051;-0.109;0.021;-0.034;-0.006;6.4;-7.9;23.4;50.81;3725;2018-04-16 23:00:22:886
-3.646;-9.055;0.426;-3.6;-9.106;0.535;-0.047;0.051;-0.109;0.022;-0.055;-0.006;6.4;-7.9;23.4;50.81;3736;2018-04-16 23:00:22:897
-3.642;-9.033;0.413;-3.599;-9.106;0.541;-0.052;0.08;-0.142;0.018;-0.07;-0.006;6.4;-7.9;23.3;50.81;3746;2018-04-16 23:00:22:907
-3.65;-9.026;0.397;-3.599;-9.106;0.541;-0.052;0.08;-0.142;0.018;-0.07;-0.006;6.4;-7.9;23.3;50.81;3756;2018-04-16 23:00:22:917
-3.65;-9.026;0.397;-3.598;-9.106;0.549;-0.071;0.057;-0.141;0.021;-0.087;-0.005;6.4;-7.9;23.3;50.81;3766;2018-04-16 23:00:22:927
-3.68;-9.052;0.408;-3.598;-9.106;0.549;-0.071;0.057;-0.141;0.023;-0.104;-0.001;6.4;-7.9;23.3;50.81;3776;2018-04-16 23:00:22:937
-3.765;-9.135;0.369;-3.598;-9.105;0.561;-0.167;-0.03;-0.193;0.032;-0.138;0.005;6.4;-7.9;23.2;50.81;3786;2018-04-16 23:00:22:947
-3.765;-9.135;0.369;-3.598;-9.105;0.561;-0.167;-0.03;-0.193;0.032;-0.138;0.005;6.4;-7.9;23.2;50.81;3796;2018-04-16 23:00:22:957
-3.853;-9.22;0.267;-3.6;-9.103;0.583;-0.281;-0.134;-0.327;0.049;-0.2;0.016;6.4;-7.9;23.0;50.81;3806;2018-04-16 23:00:22:967
-3.885;-9.224;0.245;-3.6;-9.103;0.583;-0.281;-0.134;-0.327;0.082;-0.298;0.033;6.4;-7.9;23.0;50.81;3816;2018-04-16 23:00:22:977
-3.885;-9.224;0.245;-3.605;-9.099;0.62;-0.281;-0.013;-0.353;0.099;-0.351;0.042;6.4;-7.9;23.1;50.81;3826;2018-04-16 23:00:22:987
-3.849;-9.006;0.274;-3.608;-9.096;0.64;-0.222;0.136;-0.365;0.114;-0.385;0.049;6.4;-7.9;23.0;50.81;3837;2018-04-16 23:00:22:998
-3.849;-9.006;0.274;-3.608;-9.096;0.64;-0.222;0.136;-0.365;0.114;-0.385;0.049;6.4;-7.9;23.0;50.81;3846;2018-04-16 23:00:23:007
-3.782;-8.854;0.36;-3.608;-9.09;0.688;-0.145;0.269;-0.275;0.122;-0.398;0.049;6.5;-7.9;23.0;50.81;3856;2018-04-16 23:00:23:017
-3.752;-8.888;0.51;-3.614;-9.09;0.688;-0.145;0.269;-0.275;0.122;-0.346;0.049;6.5;-7.9;23.0;50.81;3866;2018-04-16 23:00:23:027
-3.85;-9.096;0.389;-3.617;-9.087;0.711;-0.167;0.141;-0.196;0.116;-0.304;0.046;6.5;-7.8;23.0;50.81;3877;2018-04-16 23:00:23:038
-3.85;-9.096;0.389;-3.617;-9.087;0.711;-0.167;0.141;-0.196;0.116;-0.304;0.046;6.5;-7.8;23.0;50.81;3888;2018-04-16 23:00:23:049
-3.857;-9.266;0.274;-3.625;-9.082;0.741;-0.232;-0.184;-0.467;0.11;-0.186;0.053;6.6;-7.8;23.2;50.81;3896;2018-04-16 23:00:23:057
-3.727;-9.357;0.327;-3.633;-9.076;0.775;-0.094;-0.281;-0.448;0.128;-0.213;0.06;6.6;-7.8;23.2;50.85;3906;2018-04-16 23:00:23:067
-3.727;-9.357;0.327;-3.633;-9.076;0.775;-0.094;-0.281;-0.448;0.075;-0.164;0.055;6.7;-7.8;23.2;50.85;3915;2018-04-16 23:00:23:076
-3.737;-9.14;0.303;-3.64;-9.072;0.785;-0.118;-0.014;-0.514;-0.007;-0.09;0.045;6.7;-7.8;23.2;50.85;3926;2018-04-16 23:00:23:087
-3.766;-9.002;0.257;-3.64;-9.072;0.785;-0.118;-0.014;-0.514;-0.007;-0.09;0.045;6.8;-7.7;23.2;50.85;3936;2018-04-16 23:00:23:097
-3.766;-9.002;0.257;-3.649;-9.069;0.776;-0.079;0.119;-0.44;-0.054;-0.086;0.049;6.8;-7.7;23.2;50.85;3946;2018-04-16 23:00:23:107
-3.704;-8.91;0.37;-3.649;-9.069;0.776;-0.079;0.119;-0.44;-0.093;-0.066;0.049;6.9;-7.7;23.1;50.85;3956;2018-04-16 23:00:23:117
-3.557;-8.856;0.409;-3.656;-9.069;0.748;0.1;0.213;-0.339;-0.143;-0.022;0.045;6.9;-7.7;23.1;50.85;3966;2018-04-16 23:00:23:127
-3.557;-8.856;0.409;-3.656;-9.069;0.748;0.1;0.213;-0.339;-0.181;0.018;0.029;7.0;-7.6;23.0;50.85;3976;2018-04-16 23:00:23:137
-3.478;-8.818;0.554;-3.658;-9.072;0.701;0.179;0.256;-0.108;-0.237;0.103;-0.005;7.0;-7.6;23.0;50.85;3986;2018-04-16 23:00:23:147
-3.427;-8.792;0.552;-3.658;-9.072;0.701;0.179;0.256;-0.108;-0.237;0.103;-0.005;7.0;-7.6;22.8;50.85;3996;2018-04-16 23:00:23:157
-3.427;-8.792;0.552;-3.654;-9.077;0.648;0.302;0.27;-0.178;-0.238;0.149;-0.023;7.0;-7.6;22.8;50.85;4006;2018-04-16 23:00:23:167
-3.351;-8.835;0.433;-3.654;-9.077;0.648;0.302;0.27;-0.178;-0.138;0.026;-0.055;7.1;-7.5;22.7;50.85;4016;2018-04-16 23:00:23:177
-3.384;-8.961;0.411;-3.639;-9.084;0.635;0.255;0.123;-0.224;-0.033;-0.119;-0.082;7.1;-7.5;22.7;50.85;4026;2018-04-16 23:00:23:187
-3.384;-8.961;0.411;-3.639;-9.084;0.635;0.255;0.123;-0.224;0.05;-0.226;-0.105;7.2;-7.5;22.6;50.85;4040;2018-04-16 23:00:23:201
-3.394;-8.908;0.537;-3.614;-9.092;0.663;0.221;0.206;-0.113;0.05;-0.226;-0.105;7.2;-7.5;22.6;50.85;4046;2018-04-16 23:00:23:207
-3.408;-8.837;0.543;-3.614;-9.092;0.663;0.221;0.206;-0.113;0.072;-0.222;-0.126;7.3;-7.6;22.6;50.85;4056;2018-04-16 23:00:23:217
-3.408;-8.837;0.543;-3.614;-9.092;0.663;0.221;0.206;-0.113;0.022;-0.133;-0.137;7.3;-7.6;22.6;50.85;4065;2018-04-16 23:00:23:226
-3.493;-8.959;0.298;-3.586;-9.102;0.675;0.148;0.209;-0.305;-0.028;-0.067;-0.143;7.4;-7.6;22.6;50.85;4076;2018-04-16 23:00:23:237
-3.493;-8.959;0.298;-3.586;-9.102;0.675;0.148;0.209;-0.305;-0.044;-0.081;-0.151;7.4;-7.6;22.6;50.85;4086;2018-04-16 23:00:23:247
-3.621;-8.996;0.138;-3.558;-9.114;0.67;-0.063;0.118;-0.532;-0.009;-0.18;-0.158;7.5;-7.6;22.7;50.85;4096;2018-04-16 23:00:23:257
-3.78;-8.894;0.266;-3.525;-9.125;0.694;-0.265;0.273;-0.378;0.043;-0.291;-0.172;7.5;-7.6;22.7;50.85;4106;2018-04-16 23:00:23:267
-3.804;-8.783;0.423;-3.525;-9.125;0.694;-0.265;0.273;-0.378;0.084;-0.349;-0.18;7.6;-7.5;22.8;50.85;4116;2018-04-16 23:00:23:277
-3.804;-8.783;0.423;-3.492;-9.135;0.728;-0.38;0.354;-0.225;0.088;-0.329;-0.182;7.6;-7.5;22.8;50.85;4126;2018-04-16 23:00:23:287
-3.97;-8.866;0.532;-3.492;-9.135;0.728;-0.38;0.354;-0.225;0.049;-0.226;-0.189;7.7;-7.5;22.8;50.85;4136;2018-04-16 23:00:23:297
-4.061;-8.818;0.526;-3.464;-9.146;0.729;-0.597;0.328;-0.204;-0.013;-0.086;-0.183;7.7;-7.5;22.8;50.85;4146;2018-04-16 23:00:23:307
-4.061;-8.818;0.526;-3.464;-9.146;0.729;-0.597;0.328;-0.204;-0.06;0.043;-0.166;7.8;-7.5;22.8;50.85;4156;2018-04-16 23:00:23:317
-4.087;-8.714;0.512;-3.445;-9.155;0.7;-0.642;0.471;-0.183;-0.09;0.147;-0.154;7.8;-7.5;22.8;50.85;4165;2018-04-16 23:00:23:326
-4.181;-8.642;0.505;-3.445;-9.155;0.7;-0.642;0.471;-0.183;-0.111;0.26;-0.143;7.9;-7.5;22.6;50.85;4175;2018-04-16 23:00:23:336
-4.181;-8.642;0.505;-3.432;-9.163;0.66;-0.82;0.477;-0.177;-0.097;0.296;-0.134;7.9;-7.5;22.6;50.85;4186;2018-04-16 23:00:23:347
-4.304;-8.728;0.481;-3.432;-9.163;0.66;-0.82;0.477;-0.177;-0.067;0.301;-0.114;8.0;-7.5;22.4;50.85;4196;2018-04-16 23:00:23:357
-4.304;-8.839;0.508;-3.427;-9.167;0.63;-0.95;0.327;-0.122;-0.04;0.292;-0.094;8.0;-7.5;22.4;50.85;4206;2018-04-16 23:00:23:367
-4.377;-8.839;0.508;-3.427;-9.167;0.63;-0.95;0.327;-0.122;-0.027;0.294;-0.071;8.0;-7.5;22.3;50.85;4216;2018-04-16 23:00:23:377
-4.31;-8.854;0.481;-3.431;-9.167;0.599;-0.803;0.356;-0.153;-0.046;0.324;-0.027;8.0;-7.5;22.3;51.59;4226;2018-04-16 23:00:23:387
-4.116;-8.75;0.427;-3.431;-9.167;0.599;-0.803;0.356;-0.153;-0.094;0.334;0.024;8.0;-7.5;22.3;51.59;4236;2018-04-16 23:00:23:397
-4.116;-8.75;0.427;-3.447;-9.164;0.557;-0.471;0.552;-0.23;-0.094;0.334;0.024;8.0;-7.5;22.3;51.59;4246;2018-04-16 23:00:23:407
-3.772;-8.563;0.231;-3.447;-9.164;0.557;-0.471;0.552;-0.23;-0.123;0.277;0.095;7.9;-7.6;22.3;51.59;4256;2018-04-16 23:00:23:417
-3.451;-8.594;0.117;-3.472;-9.157;0.519;0.021;0.563;-0.402;-0.108;0.154;0.128;7.9;-7.6;22.3;51.59;4266;2018-04-16 23:00:23:427
-3.451;-8.594;0.117;-3.472;-9.157;0.519;0.021;0.563;-0.402;-0.108;0.154;0.128;7.9;-7.7;22.3;51.59;4276;2018-04-16 23:00:23:437
-3.183;-8.97;0.075;-3.472;-9.157;0.519;0.021;0.563;-0.402;-0.038;-0.12;0.17;7.9;-7.7;22.3;51.59;4286;2018-04-16 23:00:23:447
-2.88;-9.444;0.135;-3.5;-9.146;0.518;0.403;-0.005;-0.432;0.009;-0.309;0.216;7.8;-7.7;22.3;51.59;4296;2018-04-16 23:00:23:457
-2.88;-9.444;0.135;-3.5;-9.146;0.518;0.403;-0.005;-0.432;0.009;-0.309;0.216;7.8;-7.7;22.3;51.59;4306;2018-04-16 23:00:23:467
-2.632;-9.588;0.195;-3.533;-9.131;0.556;0.901;-0.456;-0.361;0.054;-0.558;0.259;7.8;-7.7;22.4;51.59;4316;2018-04-16 23:00:23:477
-1.952;-9.669;0.447;-3.563;-9.115;0.631;1.611;-0.554;-0.184;0.108;-0.798;0.29;7.8;-7.7;22.4;51.59;4326;2018-04-16 23:00:23:487
-1.952;-9.669;0.447;-3.563;-9.115;0.631;1.611;-0.554;-0.184;0.156;-0.922;0.288;7.8;-7.8;22.4;51.59;4336;2018-04-16 23:00:23:497
-1.44;-9.747;0.838;-3.573;-9.103;0.737;2.226;-0.686;0.188;0.193;-0.971;0.235;7.8;-7.8;22.4;51.59;4346;2018-04-16 23:00:23:507
-1.202;-9.789;1.006;-3.573;-9.103;0.737;2.226;-0.686;0.188;0.296;-0.955;0.098;7.8;-7.8;22.2;51.59;4356;2018-04-16 23:00:23:517
-1.202;-9.789;1.006;-3.543;-9.103;0.873;2.538;-0.681;-0.035;0.437;-0.952;-0.007;7.8;-7.8;22.2;51.59;4366;2018-04-16 23:00:23:527
-0.814;-9.692;0.691;-3.543;-9.103;0.873;2.538;-0.681;-0.035;0.437;-0.952;-0.007;7.9;-7.8;22.2;51.59;4375;2018-04-16 23:00:23:536
-0.687;-9.549;0.505;-3.459;-9.113;1.08;2.771;-0.437;-0.575;0.762;-1.049;-0.205;7.9;-7.8;22.2;51.59;4386;2018-04-16 23:00:23:547
-0.687;-9.549;0.505;-3.459;-9.113;1.08;2.771;-0.437;-0.575;0.937;-1.015;-0.332;7.9;-7.8;22.2;51.59;4396;2018-04-16 23:00:23:557
-0.735;-9.286;0.13;-3.348;-9.125;1.304;2.565;-0.107;-1.261;1.012;-0.773;-0.42;7.9;-7.8;22.2;51.59;4406;2018-04-16 23:00:23:567
-1.034;-9.128;-0.37;-3.348;-9.125;1.304;2.565;-0.107;-1.261;0.899;-0.071;-0.508;8.0;-7.7;22.1;51.59;4416;2018-04-16 23:00:23:577
-1.034;-9.128;-0.37;-3.247;-9.144;1.418;1.826;-0.067;-2.118;0.672;0.48;-0.541;8.0;-7.7;22.1;51.59;4426;2018-04-16 23:00:23:587
-1.683;-9.34;-0.79;-3.247;-9.144;1.418;1.826;-0.067;-2.118;0.419;0.899;-0.541;8.1;-7.7;22.0;51.59;4435;2018-04-16 23:00:23:596
-2.392;-9.779;-0.705;-3.172;-9.174;1.396;0.78;-0.605;-2.101;0.252;1.079;-0.507;8.1;-7.7;22.0;51.59;4446;2018-04-16 23:00:23:607
-2.392;-9.779;-0.705;-3.172;-9.174;1.396;0.78;-0.605;-2.101;0.252;1.079;-0.507;8.2;-7.6;22.0;51.59;4456;2018-04-16 23:00:23:617
-2.586;-9.732;-0.415;-3.145;-9.186;1.378;0.559;-0.547;-1.794;0.224;1.046;-0.45;8.2;-7.5;22.0;51.59;4467;2018-04-16 23:00:23:628
-2.756;-9.364;0.231;-3.092;-9.206;1.365;0.257;-0.08;-0.989;0.277;0.922;-0.408;8.2;-7.5;22.0;51.59;4476;2018-04-16 23:00:23:637
-2.756;-9.364;0.231;-3.092;-9.206;1.365;0.257;-0.08;-0.989;0.308;0.871;-0.39;8.3;-7.4;22.0;51.59;4486;2018-04-16 23:00:23:647
-3.074;-9.151;0.745;-3.051;-9.221;1.355;-0.1;0.124;-0.175;0.298;0.957;-0.367;8.3;-7.4;22.0;51.59;4495;2018-04-16 23:00:23:656
-3.164;-9.079;1.393;-3.051;-9.221;1.355;-0.1;0.124;-0.175;0.132;1.289;-0.32;8.3;-7.2;22.1;51.59;4506;2018-04-16 23:00:23:667
-3.233;-8.887;1.856;-3.038;-9.236;1.279;-0.195;0.349;0.577;0.132;1.289;-0.32;8.3;-7.2;22.1;51.59;4516;2018-04-16 23:00:23:677
-3.233;-8.887;1.856;-3.038;-9.236;1.279;-0.195;0.349;0.577;-0.166;1.789;-0.214;8.3;-7.1;22.1;51.59;4526;2018-04-16 23:00:23:687
-3.366;-8.584;1.641;-3.06;-9.25;1.115;-0.376;0.667;0.399;-0.275;1.991;-0.151;8.3;-7.1;22.1;51.59;4536;2018-04-16 23:00:23:697
-3.716;-8.744;0.813;-3.06;-9.25;1.115;-0.376;0.667;0.399;-0.263;2.007;-0.116;8.3;-6.9;22.1;51.59;4545;2018-04-16 23:00:23:706
-3.716;-8.744;0.813;-3.081;-9.255;1.014;-1.096;0.124;-0.573;-0.01;1.582;-0.108;8.3;-6.9;22.1;51.59;4556;2018-04-16 23:00:23:717
-4.237;-9.268;0.587;-3.081;-9.255;1.014;-1.096;0.124;-0.573;0.407;0.821;-0.071;8.2;-6.7;22.2;52.03;4566;2018-04-16 23:00:23:727
-4.041;-9.756;1.142;-3.087;-9.241;1.12;-0.955;-0.516;0.022;0.71;0.243;-0.009;8.2;-6.7;22.2;52.03;4576;2018-04-16 23:00:23:737
-4.041;-9.756;1.142;-3.087;-9.241;1.12;-0.955;-0.516;0.022;0.834;-0.02;0.033;8.1;-6.4;22.3;52.03;4586;2018-04-16 23:00:23:747
-3.639;-10.203;1.273;-3.095;-9.216;1.283;-0.478;-1.064;-0.026;0.853;-0.127;0.073;8.1;-6.4;22.3;52.03;4596;2018-04-16 23:00:23:757
-3.639;-10.409;0.936;-3.095;-9.216;1.283;-0.478;-1.064;-0.026;0.866;-0.176;0.108;8.0;-6.2;22.4;52.03;4606;2018-04-16 23:00:23:767
-3.365;-10.409;0.936;-3.111;-9.184;1.466;-0.09;-1.281;-1.015;0.866;-0.176;0.108;8.0;-6.2;22.4;52.03;4616;2018-04-16 23:00:23:777
-3.147;-10.446;0.354;-3.111;-9.184;1.466;-0.09;-1.281;-1.015;1.052;-0.589;0.164;7.8;-5.8;22.4;52.03;4626;2018-04-16 23:00:23:787
-2.749;-10.436;-2.515;-3.115;-9.158;1.614;0.046;-1.274;-1.578;1.192;-0.831;0.182;7.8;-5.8;22.4;52.03;4636;2018-04-16 23:00:23:797
-2.749;-10.436;-2.515;-3.084;-9.084;2.036;0.86;-1.596;-7.256;1.684;-1.85;0.217;7.7;-5.4;22.4;52.03;4646;2018-04-16 23:00:23:807
-1.69;-10.951;-6.181;-3.084;-9.084;2.036;0.86;-1.596;-7.256;1.817;-2.834;0.194;7.7;-5.4;22.4;52.03;4656;2018-04-16 23:00:23:817
-1.69;-10.951;-6.181;-3.084;-9.084;2.036;0.86;-1.596;-7.256;1.817;-2.834;0.194;7.5;-5.1;22.4;52.03;4666;2018-04-16 23:00:23:827
-1.223;-11.036;-4.366;-2.997;-8.999;2.492;1.773;-2.037;-6.858;1.481;-2.359;0.149;7.5;-5.1;22.4;52.03;4676;2018-04-16 23:00:23:837
-0.33;-11.286;0.612;-3.025;-8.971;2.556;2.74;-2.497;-1.137;0.551;0.4;0.031;7.5;-4.6;22.4;52.03;4686;2018-04-16 23:00:23:847
-0.239;-11.918;1.518;-3.025;-8.971;2.556;2.74;-2.497;-1.137;0.029;2.398;-0.109;7.5;-4.6;22.4;52.03;4696;2018-04-16 23:00:23:857
-0.239;-11.918;1.518;-3.025;-8.971;2.556;2.74;-2.497;-1.137;-0.217;3.593;-0.226;7.3;-4.1;22.3;52.03;4706;2018-04-16 23:00:23:867
-0.555;-12.001;0.042;-3.153;-8.996;2.302;2.85;-2.975;-1.553;-0.28;3.798;-0.28;7.2;-3.9;22.3;52.03;4717;2018-04-16 23:00:23:878
-0.555;-12.001;0.042;-3.153;-8.996;2.302;2.85;-2.975;-1.553;-0.314;3.2;-0.325;7.2;-3.9;22.3;52.03;4726;2018-04-16 23:00:23:887
-1.353;-12.213;-1.867;-3.229;-9.03;2.049;1.876;-3.183;-3.917;-0.191;1.514;-0.299;6.9;-3.5;22.4;52.03;4736;2018-04-16 23:00:23:897
-2.195;-11.539;-1.644;-3.216;-9.055;1.958;1.021;-2.484;-3.602;-0.184;0.34;-0.232;6.9;-3.5;22.4;52.03;4746;2018-04-16 23:00:23:907
-2.195;-11.539;-1.644;-3.216;-9.055;1.958;1.021;-2.484;-3.602;-0.184;0.34;-0.232;6.5;-3.2;22.4;52.03;4756;2018-04-16 23:00:23:917
-2.806;-11.049;-1.574;-3.216;-9.055;1.958;1.021;-2.484;-3.602;-0.496;-1.162;-0.137;6.5;-3.2;22.4;52.03;4766;2018-04-16 23:00:23:927
-4.074;-11.182;-2.697;-3.156;-9.082;1.929;-0.082;-2.028;-3.812;-0.982;-1.453;-0.038;6.1;-2.8;22.3;52.03;4776;2018-04-16 23:00:23:937
-4.074;-11.182;-2.697;-3.156;-9.082;1.929;-0.082;-2.028;-3.812;-0.982;-1.453;-0.038;5.9;-2.7;22.3;52.03;4786;2018-04-16 23:00:23:947
-4.622;-11.096;-2.975;-3.109;-9.128;1.784;-1.513;-1.968;-4.759;-1.462;-1.233;0.059;5.9;-2.7;22.3;52.03;4796;2018-04-16 23:00:23:957
-4.999;-10.503;-1.943;-3.119;-9.19;1.411;-1.928;-1.182;-2.905;-2.21;-0.511;0.151;5.6;-2.4;22.3;52.03;4806;2018-04-16 23:00:23:967
-4.999;-10.503;-1.943;-3.119;-9.19;1.411;-1.928;-1.182;-2.905;-2.58;0.132;0.164;5.6;-2.4;22.3;52.03;4816;2018-04-16 23:00:23:977
-4.882;-10.217;0.171;-3.153;-9.24;0.919;-1.583;-0.964;-0.35;-2.586;0.341;0.144;5.5;-2.1;22.4;52.03;4826;2018-04-16 23:00:23:987
-4.457;-10.354;1.93;-3.153;-9.24;0.919;-1.583;-0.964;-0.35;-2.586;0.341;0.144;5.5;-2.1;22.4;52.03;4836;2018-04-16 23:00:23:997
-4.457;-10.354;1.93;-3.153;-9.24;0.919;-1.583;-0.964;-0.35;-2.426;0.4;0.095;5.3;-2.0;22.3;52.03;4846;2018-04-16 23:00:24:007
-4.264;-10.502;4.029;-3.177;-9.267;0.445;-1.161;-1.257;2.907;-2.198;0.644;0.09;5.3;-2.0;22.3;52.03;4856;2018-04-16 23:00:24:017
-4.264;-10.502;4.029;-3.177;-9.267;0.445;-1.161;-1.257;2.907;-2.198;0.644;0.09;5.3;-2.0;22.3;52.03;4865;2018-04-16 23:00:24:026
-4.436;-10.439;4.791;-3.196;-9.271;0.0;-1.24;-1.168;4.791;-1.786;1.493;0.07;5.2;-2.0;22.2;52.03;4876;2018-04-16 23:00:24:037
-4.436;-10.439;4.791;-3.196;-9.271;0.0;-1.24;-1.168;4.791;-1.786;1.493;0.07;5.2;-2.0;22.2;52.03;4886;2018-04-16 23:00:24:047
-5.203;-10.241;5.182;-3.203;-9.259;-0.423;-2.0;-0.982;5.605;-1.554;2.321;0.067;5.2;-2.0;22.2;52.55;4896;2018-04-16 23:00:24:057
-4.451;-9.589;4.81;-3.167;-9.242;-0.855;-1.284;-0.347;5.665;-1.304;2.949;-0.066;5.1;-2.2;22.1;52.55;4906;2018-04-16 23:00:24:067
-4.451;-9.589;4.81;-3.167;-9.242;-0.855;-1.284;-0.347;5.665;-1.304;2.949;-0.066;5.1;-2.2;22.1;52.55;4916;2018-04-16 23:00:24:077
-5.314;-9.855;3.305;-3.056;-9.234;-1.249;-1.931;-0.627;3.046;-0.99;3.456;-0.225;4.8;-2.4;22.1;52.55;4926;2018-04-16 23:00:24:087
-3.767;-10.594;-4.563;-3.056;-9.234;-1.249;-1.931;-0.627;3.046;-0.823;3.49;-0.195;4.8;-2.4;22.1;52.55;4936;2018-04-16 23:00:24:097
-3.767;-10.594;-4.563;-3.056;-9.234;-1.249;-1.931;-0.627;3.046;-0.93;3.102;-0.213;3.6;-3.6;22.2;52.55;4946;2018-04-16 23:00:24:107
-2.851;-10.797;-6.367;-2.931;-9.219;-1.607;0.08;-1.577;-4.76;-1.133;2.398;-0.205;3.6;-3.6;22.2;52.55;4956;2018-04-16 23:00:24:117
-3.148;-9.953;-3.403;-2.931;-9.219;-1.607;0.08;-1.577;-4.76;-1.115;1.852;-0.173;2.0;-4.9;23.1;52.55;4965;2018-04-16 23:00:24:126
-2.674;-9.139;0.874;-2.834;-9.19;-1.918;-0.192;-0.448;-0.447;-0.994;1.591;-0.165;2.0;-4.9;23.1;52.55;4976;2018-04-16 23:00:24:137
-2.68;-8.976;2.521;-2.718;-9.187;-2.094;0.038;0.211;4.615;-0.705;1.585;-0.279;0.7;-5.9;22.1;52.55;4986;2018-04-16 23:00:24:147
-2.868;-8.444;0.888;-2.718;-9.187;-2.094;0.038;0.211;4.615;-0.231;1.836;-0.417;0.0;-6.3;22.9;52.55;4996;2018-04-16 23:00:24:157
-2.868;-8.444;0.888;-2.718;-9.187;-2.094;0.038;0.211;4.615;-0.231;1.836;-0.417;0.0;-6.3;22.9;52.55;5006;2018-04-16 23:00:24:167
-2.802;-8.58;-2.181;-2.521;-9.228;-2.16;-0.24;0.837;2.444;0.338;2.363;-0.644;-1.8;-7.1;21.5;52.55;5016;2018-04-16 23:00:24:177
-2.802;-8.58;-2.181;-2.521;-9.284;-2.17;-0.786;0.716;1.052;0.346;1.399;-0.855;-1.8;-7.1;21.5;52.55;5026;2018-04-16 23:00:24:187
-2.976;-8.258;-0.62;-2.295;-9.284;-2.17;-0.786;0.716;1.052;0.346;1.399;-0.855;-3.0;-7.2;20.8;52.55;5036;2018-04-16 23:00:24:197
-2.976;-7.508;-1.633;-2.136;-9.322;-2.169;-1.132;1.814;0.536;0.031;0.27;-0.757;-3.0;-7.2;20.8;52.55;5046;2018-04-16 23:00:24:207
-3.268;-7.508;-1.633;-2.136;-9.322;-2.169;-1.132;1.814;0.536;-0.341;0.17;-0.674;-3.5;-7.1;22.2;52.55;5056;2018-04-16 23:00:24:217
-4.08;-6.823;-1.277;-2.136;-9.322;-2.169;-1.132;1.814;0.536;-0.861;0.006;-0.523;-3.5;-7.1;22.2;52.55;5066;2018-04-16 23:00:24:227
-4.494;-5.492;0.826;-2.041;-9.304;-2.333;-2.249;2.848;2.15;-1.273;-0.001;-0.315;-4.2;-8.0;21.1;52.55;5076;2018-04-16 23:00:24:237
-4.494;-5.492;0.826;-1.996;-9.241;-2.607;-2.911;4.367;2.819;-1.5;0.326;-0.139;-4.2;-8.0;21.1;52.55;5085;2018-04-16 23:00:24:246
-5.133;-4.483;0.226;-1.996;-9.241;-2.607;-2.911;4.367;2.819;-1.5;0.326;-0.139;-4.4;-8.2;21.1;52.55;5096;2018-04-16 23:00:24:257
-5.133;-4.483;0.226;-1.996;-9.241;-2.607;-2.911;4.367;2.819;-1.519;0.327;-0.027;-4.4;-8.2;21.1;52.55;5106;2018-04-16 23:00:24:267
-5.224;-3.931;0.042;-1.974;-9.16;-2.894;-3.25;5.228;2.935;-1.519;0.327;-0.027;-4.4;-9.6;20.5;52.55;5116;2018-04-16 23:00:24:277
-4.706;-4.063;-0.778;-1.974;-9.105;-3.061;-2.254;4.933;2.307;-0.74;-0.023;0.043;-4.4;-9.6;20.5;52.55;5129;2018-04-16 23:00:24:290
-3.29;-4.524;-0.56;-1.974;-9.105;-3.061;-2.254;4.933;2.307;-0.74;-0.023;0.043;-4.8;-9.7;21.7;52.55;5136;2018-04-16 23:00:24:297
-3.29;-4.524;-0.56;-1.999;-9.087;-3.097;-0.361;4.215;2.124;-0.246;-0.192;0.078;-4.8;-9.7;21.7;52.55;5146;2018-04-16 23:00:24:307
-1.84;-5.109;-1.331;-1.999;-9.087;-3.097;-0.361;4.215;2.124;0.007;-0.17;0.079;-5.1;-10.1;21.8;52.55;5156;2018-04-16 23:00:24:317
-0.85;-5.901;-2.331;-2.031;-9.093;-3.059;1.181;3.193;0.729;0.162;-0.205;0.097;-5.1;-10.1;21.8;52.55;5166;2018-04-16 23:00:24:327
-0.85;-5.901;-2.331;-2.031;-9.093;-3.059;1.181;3.193;0.729;0.259;-0.364;0.128;-4.6;-9.7;21.5;52.55;5176;2018-04-16 23:00:24:337
0.461;-7.27;-4.251;-2.094;-9.105;-2.98;2.99;1.349;-1.818;0.33;-0.848;0.164;-4.6;-9.7;21.5;52.55;5185;2018-04-16 23:00:24:346
1.371;-8.334;-5.261;-2.137;-9.112;-2.929;3.935;0.129;-2.798;0.327;-1.252;0.116;-4.6;-9.4;21.5;52.55;5196;2018-04-16 23:00:24:357
1.371;-8.334;-5.261;-2.137;-9.112;-2.929;3.935;0.129;-2.798;0.327;-1.252;0.116;-4.6;-9.4;21.5;58.87;5206;2018-04-16 23:00:24:367
2.479;-10.397;-6.655;-2.192;-9.12;-2.862;4.671;-1.277;-3.793;0.292;-1.621;0.042;-4.6;-9.2;21.7;58.87;5216;2018-04-16 23:00:24:377
2.479;-12.558;-6.213;-2.289;-9.128;-2.757;5.918;-3.429;-3.456;0.038;-1.973;-0.075;-4.6;-9.2;21.7;58.87;5226;2018-04-16 23:00:24:387
3.628;-12.558;-6.213;-2.289;-9.128;-2.757;5.918;-3.429;-3.456;0.038;-1.973;-0.075;-5.0;-9.4;21.5;58.87;5236;2018-04-16 23:00:24:397
3.079;-11.768;-3.859;-2.289;-9.128;-2.757;5.918;-3.429;-3.456;-0.027;-1.682;-0.101;-5.0;-9.4;21.5;58.87;5246;2018-04-16 23:00:24:407
1.856;-9.957;-2.319;-2.361;-9.133;-2.681;5.255;-2.126;-0.714;0.06;-1.395;-0.111;-5.2;-9.6;21.3;58.87;5256;2018-04-16 23:00:24:417
1.856;-9.957;-2.319;-2.361;-9.133;-2.681;5.255;-2.126;-0.714;0.143;-1.038;-0.162;-5.2;-9.6;21.3;58.87;5265;2018-04-16 23:00:24:426
0.53;-9.238;-2.34;-2.364;-9.152;-2.611;2.894;-0.086;0.271;0.103;-0.315;-0.208;-5.2;-9.6;21.1;58.87;5276;2018-04-16 23:00:24:437
-0.5;-8.23;-4.298;-2.317;-9.163;-2.614;1.633;1.036;-2.126;-0.013;0.099;-0.242;-5.2;-9.6;21.1;58.87;5286;2018-04-16 23:00:24:447
-1.063;-8.159;-5.4;-2.317;-9.163;-2.614;1.633;1.036;-2.126;-0.013;0.099;-0.242;-5.2;-9.6;21.1;58.87;5296;2018-04-16 23:00:24:457
-1.063;-8.159;-5.4;-2.317;-9.163;-2.614;1.633;1.036;-2.126;-0.007;0.055;-0.397;-5.1;-9.6;21.0;58.87;5306;2018-04-16 23:00:24:467
-2.084;-8.752;-3.683;-2.237;-9.172;-2.653;0.77;0.779;-2.037;0.165;-0.31;-0.391;-5.1;-9.6;21.0;58.87;5316;2018-04-16 23:00:24:477
-4.602;-10.192;-1.575;-2.212;-9.196;-2.589;-2.39;-0.996;1.014;0.33;-0.503;-0.161;-4.9;-9.6;21.0;58.87;5326;2018-04-16 23:00:24:487
-4.602;-10.192;-1.575;-2.212;-9.196;-2.589;-2.39;-0.996;1.014;0.303;-0.266;0.115;-4.9;-9.6;21.0;58.87;5336;2018-04-16 23:00:24:497
-7.807;-12.434;-1.401;-2.212;-9.196;-2.589;-2.39;-0.996;1.014;0.303;-0.266;0.115;-4.7;-9.6;21.0;58.87;5346;2018-04-16 23:00:24:507
-9.85;-15.462;-6.086;-2.268;-9.198;-2.535;-6.666;-4.506;-0.209;0.21;-0.082;0.367;-4.5;-9.6;21.0;58.87;5356;2018-04-16 23:00:24:517
-9.85;-15.462;-6.086;-2.268;-9.198;-2.535;-6.666;-4.506;-0.209;-0.055;-0.579;0.442;-4.5;-9.6;21.0;58.87;5366;2018-04-16 23:00:24:527
-8.859;-17.576;-8.863;-2.371;-9.176;-2.519;-6.487;-8.4;-6.345;-0.184;-0.925;0.177;-4.2;-9.4;20.9;58.87;5378;2018-04-16 23:00:24:539
-6.47;-14.934;-2.738;-2.386;-9.173;-2.517;-4.084;-5.761;-0.221;-0.12;-0.31;-0.216;-4.1;-9.3;20.9;58.87;5386;2018-04-16 23:00:24:547
-4.968;-9.934;2.144;-2.344;-9.181;-2.526;-2.624;-0.752;4.67;0.193;0.981;-0.52;-4.1;-9.3;20.9;58.87;5396;2018-04-16 23:00:24:557
-4.767;-4.286;2.545;-2.198;-9.219;-2.519;-2.569;4.934;5.064;0.426;1.319;-0.446;-3.8;-9.2;21.0;58.87;5406;2018-04-16 23:00:24:567
-4.767;-4.286;2.545;-2.198;-9.219;-2.519;-2.569;4.934;5.064;0.426;1.319;-0.446;-3.8;-9.2;21.0;58.87;5416;2018-04-16 23:00:24:577
-4.468;-4.035;1.332;-2.114;-9.257;-2.452;-2.451;4.945;3.59;0.677;1.422;-0.105;-3.5;-9.0;21.2;58.87;5426;2018-04-16 23:00:24:587
-4.766;-4.908;0.854;-2.114;-9.257;-2.452;-2.451;4.945;3.59;0.827;1.273;0.217;-3.3;-8.8;21.1;58.87;5436;2018-04-16 23:00:24:597
-4.766;-4.908;0.854;-2.114;-9.257;-2.452;-2.451;4.945;3.59;0.827;1.273;0.217;-3.3;-8.8;21.1;58.87;5446;2018-04-16 23:00:24:607
-5.198;-6.801;0.67;-2.178;-9.274;-2.327;-3.02;2.474;2.997;0.918;0.892;0.759;-3.1;-8.5;21.2;58.87;5456;2018-04-16 23:00:24:617
-5.198;-6.801;0.67;-2.178;-9.274;-2.327;-3.02;2.474;2.997;0.918;0.892;0.759;-3.1;-8.5;21.2;58.87;5466;2018-04-16 23:00:24:627
-6.226;-10.552;1.194;-2.351;-9.261;-2.209;-3.875;-1.292;3.403;0.688;0.63;1.09;-2.9;-8.2;21.2;58.87;5476;2018-04-16 23:00:24:637
-6.036;-11.558;0.864;-2.504;-9.227;-2.181;-3.385;-2.377;2.837;0.34;0.667;1.002;-2.9;-8.2;21.2;58.87;5486;2018-04-16 23:00:24:647
-5.576;-11.454;0.385;-2.504;-9.227;-2.181;-3.385;-2.377;2.837;0.11;0.582;0.874;-2.8;-7.9;21.1;58.87;5496;2018-04-16 23:00:24:657
-5.576;-11.454;0.385;-2.504;-9.227;-2.181;-3.385;-2.377;2.837;0.11;0.582;0.874;-2.8;-7.9;21.1;58.87;5507;2018-04-16 23:00:24:668
-4.909;-10.542;-0.17;-2.639;-9.183;-2.21;-2.271;-1.359;2.04;-0.142;0.183;0.786;-2.7;-7.5;21.1;58.87;5515;2018-04-16 23:00:24:676
-3.357;-8.958;-0.814;-2.817;-9.125;-2.228;-0.539;0.167;1.414;-0.287;-0.454;0.839;-2.7;-7.5;21.1;54.91;5526;2018-04-16 23:00:24:687
-3.357;-8.958;-0.814;-2.817;-9.125;-2.228;-0.539;0.167;1.414;-0.371;-0.954;0.859;-2.7;-7.1;21.2;54.91;5536;2018-04-16 23:00:24:697
-2.237;-8.911;-0.875;-3.021;-9.063;-2.216;0.982;-0.029;0.748;-0.463;-1.717;0.727;-2.7;-7.1;21.2;54.91;5546;2018-04-16 23:00:24:707
-1.539;-9.426;-2.109;-3.021;-9.063;-2.216;0.982;-0.029;0.748;-0.463;-1.717;0.727;-2.7;-6.8;21.1;54.91;5555;2018-04-16 23:00:24:716
-1.539;-9.426;-2.109;-3.269;-9.044;-1.921;1.988;-0.685;1.436;0.25;-3.575;0.639;-2.7;-6.8;21.1;54.91;5565;2018-04-16 23:00:24:726
-1.416;-9.919;0.411;-3.269;-9.044;-1.921;1.988;-0.685;1.436;1.428;-5.521;0.483;-2.7;-6.5;21.2;54.91;5576;2018-04-16 23:00:24:737
-1.732;-10.22;1.769;-3.515;-9.069;-1.252;1.783;-1.151;3.021;1.654;-5.64;0.373;-2.7;-6.5;21.2;54.91;5586;2018-04-16 23:00:24:747
-1.732;-10.22;1.769;-3.515;-9.069;-1.252;1.783;-1.151;3.021;1.646;-5.202;0.364;-2.6;-6.2;21.1;54.91;5596;2018-04-16 23:00:24:757
-1.162;-9.327;2.506;-3.657;-9.08;-0.587;2.676;0.052;3.088;1.675;-4.475;0.406;-2.6;-6.2;21.1;54.91;5606;2018-04-16 23:00:24:767
-0.595;-8.599;2.588;-3.657;-9.08;-0.587;2.676;0.052;3.088;1.919;-3.429;0.392;-2.2;-5.8;21.0;54.91;5615;2018-04-16 23:00:24:776
-0.595;-8.599;2.588;-3.657;-9.08;-0.074;2.676;0.052;3.088;2.171;-1.797;0.247;-2.2;-5.8;21.0;54.91;5626;2018-04-16 23:00:24:787
-0.232;-8.341;0.663;-3.703;-9.08;-0.074;3.502;0.831;1.594;2.056;0.075;-0.086;-0.9;-5.0;20.6;54.91;5636;2018-04-16 23:00:24:797
-1.361;-8.979;-0.33;-3.632;-9.108;0.13;2.27;0.129;-0.461;1.693;1.416;-0.408;-0.9;-5.0;20.6;54.91;5646;2018-04-16 23:00:24:807
-1.361;-8.979;-0.33;-3.632;-9.108;0.13;2.27;0.129;-0.461;1.376;2.038;-0.474;0.9;-3.6;20.4;54.91;5656;2018-04-16 23:00:24:817
-1.735;-8.909;-0.673;-3.595;-9.122;0.164;1.861;0.214;-0.837;1.272;2.118;-0.432;1.4;-2.8;20.7;54.91;5666;2018-04-16 23:00:24:827
-1.735;-8.909;-0.673;-3.595;-9.122;0.164;1.861;0.214;-0.837;1.13;1.637;-0.246;1.4;-2.8;20.7;54.91;5676;2018-04-16 23:00:24:837
-1.845;-8.159;-1.425;-3.554;-9.137;0.253;1.709;0.977;-1.677;1.063;1.005;-0.191;1.3;-2.1;20.5;54.91;5686;2018-04-16 23:00:24:847
-2.016;-7.841;-1.28;-3.554;-9.137;0.253;1.709;0.977;-1.677;1.063;1.005;-0.191;1.3;-2.1;20.5;54.91;5697;2018-04-16 23:00:24:858
-2.079;-7.918;-1.098;-3.53;-9.141;0.391;1.451;1.223;-1.489;0.859;0.176;-0.109;1.5;-1.0;20.1;54.91;5706;2018-04-16 23:00:24:867
-2.079;-8.066;-0.36;-3.524;-9.136;0.534;1.358;1.07;-0.895;0.646;-0.347;-0.01;1.5;-1.0;20.1;54.91;5716;2018-04-16 23:00:24:877
-2.167;-8.066;-0.36;-3.524;-9.136;0.534;1.358;1.07;-0.895;0.566;-0.574;0.026;1.4;-0.5;20.5;54.91;5726;2018-04-16 23:00:24:887
-2.433;-7.977;0.198;-3.522;-9.126;0.69;0.957;1.13;-0.272;0.594;-0.804;0.029;1.4;-0.5;20.5;54.91;5736;2018-04-16 23:00:24:897
-3.116;-8.375;1.025;-3.522;-9.126;0.69;0.957;1.13;-0.272;0.767;-0.883;0.0;2.0;0.0;20.5;54.91;5746;2018-04-16 23:00:24:907
-3.116;-8.375;1.025;-3.506;-9.113;0.917;-0.027;0.136;0.534;0.767;-0.883;0.0;2.0;0.0;20.5;54.91;5756;2018-04-16 23:00:24:917
-3.689;-9.322;1.542;-3.506;-9.113;0.917;-0.027;0.136;0.534;1.179;-0.798;-0.04;2.2;0.5;19.3;54.91;5766;2018-04-16 23:00:24:927
-3.689;-9.322;1.542;-3.493;-9.101;1.071;-0.345;-0.57;0.481;1.357;-0.534;-0.067;2.2;0.5;19.3;54.91;5776;2018-04-16 23:00:24:937
-4.117;-10.147;1.296;-3.493;-9.101;1.071;-0.345;-0.57;0.481;1.416;-0.193;-0.087;2.6;1.2;20.0;54.91;5786;2018-04-16 23:00:24:947
-4.369;-10.214;0.876;-3.473;-9.072;1.342;-0.896;-1.141;-0.465;1.416;-0.193;-0.087;2.6;1.2;20.0;54.91;5795;2018-04-16 23:00:24:956
-4.507;-9.704;0.069;-3.466;-9.033;1.601;-1.041;-0.671;-1.532;1.545;0.296;-0.1;3.3;1.8;19.9;54.91;5806;2018-04-16 23:00:24:967
-4.507;-9.704;0.069;-3.466;-9.033;1.601;-1.041;-0.671;-1.532;1.652;0.465;-0.056;3.3;1.8;19.9;54.91;5815;2018-04-16 23:00:24:976
-3.67;-9.513;-1.273;-3.466;-9.033;1.601;-1.041;-0.671;-1.532;1.657;0.674;0.009;2.8;2.0;18.8;54.91;5826;2018-04-16 23:00:24:987
-2.292;-9.896;-2.81;-3.492;-8.979;1.834;0.246;-0.64;-3.661;1.523;0.874;0.049;2.8;2.0;18.8;54.91;5836;2018-04-16 23:00:24:997
-2.292;-9.896;-2.81;-3.492;-8.979;1.834;0.246;-0.64;-3.661;1.238;1.009;0.053;2.6;2.1;19.3;54.91;5846;2018-04-16 23:00:25:007
-1.404;-10.307;-3.393;-3.537;-8.931;1.974;2.133;-1.376;-5.366;0.568;1.041;0.0;3.0;2.5;18.8;54.91;5856;2018-04-16 23:00:25:017
-0.576;-10.66;-3.276;-3.537;-8.931;1.974;2.133;-1.376;-5.366;0.568;1.041;0.0;3.0;2.5;18.8;54.9;5867;2018-04-16 23:00:25:028
-0.345;-10.564;-2.775;-3.57;-8.92;1.965;3.101;-1.694;-5.085;0.119;0.808;-0.027;3.0;2.4;19.3;54.9;5876;2018-04-16 23:00:25:037
-0.345;-10.564;-2.775;-3.57;-8.92;1.965;3.101;-1.694;-5.085;-0.446;-0.222;-0.077;3.0;2.4;19.3;54.9;5886;2018-04-16 23:00:25:047
-0.736;-10.7;-1.39;-3.56;-8.938;1.9;2.823;-1.762;-3.29;-0.49;-0.856;-0.133;3.2;2.7;19.1;54.9;5896;2018-04-16 23:00:25:057
-1.958;-11.223;1.026;-3.496;-8.967;1.883;1.537;-2.256;-0.857;-0.411;-0.935;-0.193;3.2;2.7;19.1;54.9;5906;2018-04-16 23:00:25:067
-1.958;-11.223;1.026;-3.496;-8.967;1.883;1.537;-2.256;-0.857;-0.411;-0.935;-0.193;3.3;3.0;19.0;54.9;5916;2018-04-16 23:00:25:077
-2.622;-11.665;1.603;-3.418;-9.0;1.868;0.716;-2.752;-0.503;-0.283;-0.533;-0.318;3.3;3.0;19.0;54.9;5926;2018-04-16 23:00:25:087
-3.102;-12.05;0.77;-3.418;-9.0;1.868;0.716;-2.752;-0.503;-0.227;-0.183;-0.419;3.3;3.4;19.0;54.9;5936;2018-04-16 23:00:25:097
-3.102;-12.05;0.77;-3.336;-9.039;1.829;-0.048;-3.289;-1.786;-0.188;0.061;-0.472;3.3;3.4;19.0;54.9;5945;2018-04-16 23:00:25:106
-3.388;-12.487;-0.454;-3.336;-9.039;1.829;-0.048;-3.289;-1.786;-0.178;0.257;-0.475;3.1;3.9;18.8;54.9;5956;2018-04-16 23:00:25:117
-3.388;-12.487;-0.454;-3.336;-9.039;1.829;-0.048;-3.289;-1.786;-0.287;0.454;-0.496;3.1;3.9;18.8;54.9;5966;2018-04-16 23:00:25:127
-3.348;-12.731;-1.553;-3.262;-9.083;1.74;-0.086;-3.648;-3.292;-0.742;0.732;-0.541;2.9;4.4;18.7;54.9;5976;2018-04-16 23:00:25:137
-3.348;-12.261;-2.599;-3.188;-9.15;1.511;-0.183;-3.111;-4.109;-1.161;0.842;-0.547;2.9;4.4;18.7;54.9;5986;2018-04-16 23:00:25:147
-3.371;-12.261;-2.599;-3.188;-9.15;1.511;-0.183;-3.111;-4.109;-1.161;0.842;-0.547;2.8;4.8;18.5;54.9;5996;2018-04-16 23:00:25:157
-3.904;-11.439;-3.078;-3.115;-9.23;1.13;-0.974;-1.981;-4.233;-1.798;0.761;-0.516;2.8;4.8;18.5;54.9;6006;2018-04-16 23:00:25:167
-4.539;-10.645;-2.857;-3.115;-9.23;1.13;-0.974;-1.981;-4.233;-2.189;0.575;-0.456;2.6;5.1;18.4;54.9;6016;2018-04-16 23:00:25:177
-4.539;-10.645;-2.857;-3.115;-9.23;1.13;-0.974;-1.981;-4.233;-2.507;0.325;-0.393;2.6;5.1;18.4;54.9;6025;2018-04-16 23:00:25:186
-4.992;-10.172;-2.24;-3.049;-9.298;0.646;-1.943;-0.874;-2.886;-2.726;0.045;-0.316;2.5;5.4;18.4;54.9;6037;2018-04-16 23:00:25:198
-4.829;-10.26;1.244;-3.008;-9.333;0.13;-1.822;-0.927;1.114;-2.866;-0.336;-0.176;2.5;5.4;18.4;54.9;6046;2018-04-16 23:00:25:207
-4.829;-10.26;1.244;-3.008;-9.333;0.13;-1.822;-0.927;1.114;-2.866;-0.336;-0.176;2.3;5.6;18.3;54.9;6055;2018-04-16 23:00:25:216
-4.645;-11.216;3.458;-2.982;-9.334;-0.386;-1.705;-2.085;4.187;-2.839;-0.324;-0.134;2.3;5.6;18.3;54.9;6066;2018-04-16 23:00:25:227
-4.946;-11.836;4.404;-2.982;-9.334;-0.386;-1.705;-2.085;4.187;-2.8;-0.028;-0.134;2.0;5.6;18.2;54.9;6076;2018-04-16 23:00:25:237
-5.42;-12.006;4.725;-2.952;-9.307;-0.914;-2.469;-2.699;5.639;-2.735;0.419;-0.132;2.0;5.6;18.2;54.9;6086;2018-04-16 23:00:25:247
-5.42;-12.006;4.725;-2.952;-9.307;-0.914;-2.469;-2.699;5.639;-2.616;0.9;-0.119;1.8;5.5;18.3;54.9;6095;2018-04-16 23:00:25:256
-5.539;-11.627;6.638;-2.899;-9.258;-1.434;-3.098;-2.488;8.144;-2.406;1.39;-0.101;1.8;5.5;18.3;54.9;6106;2018-04-16 23:00:25:267
-5.509;-10.925;5.133;-2.899;-9.258;-1.434;-3.098;-2.488;8.144;-1.968;1.859;-0.088;1.5;5.3;18.3;54.9;6116;2018-04-16 23:00:25:277
-5.509;-10.925;5.133;-2.899;-9.258;-1.434;-3.098;-2.488;8.144;-1.608;2.462;-0.066;1.5;5.3;18.3;54.9;6126;2018-04-16 23:00:25:287
-5.169;-9.991;2.58;-2.799;-9.211;-1.869;-2.406;-0.909;5.695;-1.249;2.91;-0.297;1.2;4.9;18.5;54.9;6136;2018-04-16 23:00:25:297
-5.169;-9.991;2.58;-2.799;-9.211;-1.869;-2.406;-0.909;5.695;-1.249;2.91;-0.297;1.2;4.9;18.5;54.9;6145;2018-04-16 23:00:25:306
-3.77;-10.817;-4.585;-2.622;-9.183;-2.231;-1.148;-1.634;-2.354;-1.042;2.734;-0.362;-0.1;3.3;19.3;54.9;6155;2018-04-16 23:00:25:316
-3.445;-10.621;-4.648;-2.496;-9.155;-2.476;-0.579;-0.951;-1.039;-0.905;1.139;-0.27;-0.1;3.3;19.3;54.9;6165;2018-04-16 23:00:25:326
-3.008;-9.404;-1.001;-2.496;-9.155;-2.476;-0.579;-0.951;-1.039;-0.856;0.885;-0.276;-1.9;1.3;18.6;54.9;6175;2018-04-16 23:00:25:336
-3.008;-9.404;-1.001;-2.378;-9.14;-2.639;-0.788;0.338;3.319;-0.606;1.324;-0.378;-1.9;1.3;18.6;52.59;6186;2018-04-16 23:00:25:347
-3.145;-8.423;1.632;-2.378;-9.14;-2.639;-0.788;0.338;3.319;-0.606;1.324;-0.378;-3.1;-0.3;19.6;52.59;6196;2018-04-16 23:00:25:357
-3.145;-7.818;1.607;-2.148;-9.161;-2.764;-0.789;1.342;4.37;-0.175;2.334;-0.571;-3.1;-0.3;19.6;52.59;6205;2018-04-16 23:00:25:366
-2.938;-7.818;1.607;-2.148;-9.161;-2.764;-0.789;1.342;4.37;0.177;2.828;-0.698;-3.9;-0.6;19.9;52.59;6215;2018-04-16 23:00:25:376
-3.254;-7.084;-1.168;-1.857;-9.214;-2.798;-1.712;2.189;1.647;0.391;2.68;-0.805;-3.9;-0.6;19.9;52.59;6225;2018-04-16 23:00:25:386
-3.95;-6.337;-2.802;-1.857;-9.214;-2.798;-1.712;2.189;1.647;0.462;1.834;-0.734;-5.9;-1.3;20.2;52.59;6235;2018-04-16 23:00:25:396
-3.95;-6.337;-2.802;-1.675;-9.249;-2.795;-2.262;2.872;-0.164;0.029;0.453;-0.607;-5.9;-1.3;20.2;52.59;6246;2018-04-16 23:00:25:407
-3.891;-6.292;-1.992;-1.675;-9.249;-2.795;-2.262;2.872;-0.164;-0.619;-1.003;-0.281;-6.5;-0.5;20.7;52.59;6256;2018-04-16 23:00:25:417
-2.225;-5.091;3.261;-1.738;-9.198;-2.923;-0.487;4.107;6.184;-1.232;-1.815;0.023;-6.5;-0.5;20.7;52.59;6266;2018-04-16 23:00:25:427
-2.225;-5.091;3.261;-1.738;-9.198;-2.923;-0.487;4.107;6.184;-1.232;-1.815;0.023;-6.7;-1.2;18.9;52.59;6275;2018-04-16 23:00:25:436
-2.051;-5.094;3.296;-1.782;-9.109;-3.164;-0.629;3.924;5.684;-1.487;-0.867;-0.038;-6.7;-1.2;18.9;52.59;6286;2018-04-16 23:00:25:447
-3.481;-5.195;0.935;-1.782;-9.109;-3.164;-0.629;3.924;5.684;-1.61;-0.033;-0.127;-6.0;-1.9;19.8;52.59;6296;2018-04-16 23:00:25:457
-3.481;-5.195;0.935;-1.73;-9.004;-3.479;-2.8;4.284;3.485;-1.695;0.492;-0.132;-6.0;-1.9;19.8;52.59;6306;2018-04-16 23:00:25:467
-5.004;-4.379;-0.297;-1.712;-8.962;-3.595;-3.684;5.018;3.337;-1.515;0.639;-0.066;-6.6;-2.4;19.6;52.59;6318;2018-04-16 23:00:25:479
-5.746;-3.545;-0.045;-1.712;-8.962;-3.595;-3.684;5.018;3.337;-1.086;0.386;0.057;-6.6;-3.1;19.4;52.59;6326;2018-04-16 23:00:25:487
-5.431;-2.595;0.31;-1.716;-8.927;-3.68;-4.213;5.784;3.866;-0.276;0.088;0.301;-6.6;-3.1;19.4;52.59;6336;2018-04-16 23:00:25:497
-5.431;-2.595;0.31;-1.777;-8.912;-3.686;-2.924;6.376;3.758;0.173;0.028;0.402;-6.8;-2.4;20.2;52.59;6346;2018-04-16 23:00:25:507
-4.077;-2.695;-0.25;-1.777;-8.912;-3.686;-2.924;6.376;3.758;0.173;0.028;0.402;-6.8;-2.4;20.2;52.59;6356;2018-04-16 23:00:25:517
-2.829;-3.351;-1.579;-1.866;-8.939;-3.575;-0.962;5.588;1.996;0.638;0.075;0.518;-6.9;-3.2;20.5;52.59;6366;2018-04-16 23:00:25:527
-2.829;-3.351;-1.579;-1.866;-8.939;-3.575;-0.962;5.588;1.996;0.861;-0.027;0.639;-6.9;-3.2;20.5;52.59;6376;2018-04-16 23:00:25:537
-1.138;-4.484;-2.989;-1.866;-8.939;-3.575;-0.962;5.588;1.996;0.861;-0.027;0.639;-7.0;-2.8;19.8;52.59;6385;2018-04-16 23:00:25:546
-0.025;-5.509;-3.906;-2.088;-8.99;-3.315;2.434;2.794;-1.408;0.943;-0.93;0.67;-6.9;-2.5;20.0;52.59;6397;2018-04-16 23:00:25:558
-0.025;-5.509;-3.906;-2.088;-8.99;-3.315;2.434;2.794;-1.408;0.943;-0.93;0.67;-6.9;-2.5;20.0;52.59;6409;2018-04-16 23:00:25:570
0.312;-8.302;-6.009;-2.193;-9.007;-3.199;2.505;0.705;-2.811;0.891;-1.574;0.551;-7.1;-2.8;20.0;52.59;6416;2018-04-16 23:00:25:577
0.312;-8.302;-6.009;-2.193;-9.007;-3.199;2.505;0.705;-2.811;0.382;-2.756;0.509;-7.1;-2.8;20.0;52.59;6426;2018-04-16 23:00:25:587
0.595;-14.534;-9.164;-2.436;-9.017;-2.987;3.031;-5.517;-6.177;-0.066;-2.966;0.542;-7.5;-2.9;19.9;52.59;6436;2018-04-16 23:00:25:597
3.045;-17.566;-8.599;-2.436;-9.017;-2.987;3.031;-5.517;-6.177;-0.066;-2.966;0.542;-7.5;-2.9;19.9;52.59;6446;2018-04-16 23:00:25:607
2.637;-17.154;-6.466;-2.682;-8.978;-2.893;5.728;-8.588;-5.705;-0.459;-2.69;0.36;-7.7;-3.0;20.0;52.59;6456;2018-04-16 23:00:25:617
2.637;-17.154;-6.466;-2.682;-8.978;-2.893;5.728;-8.588;-5.705;-0.585;-0.916;-0.254;-7.7;-2.9;19.9;52.59;6466;2018-04-16 23:00:25:627
1.899;-14.897;-6.652;-2.687;-8.958;-2.949;4.586;-5.938;-3.703;-0.313;0.414;-0.5;-7.7;-2.9;19.9;52.59;6476;2018-04-16 23:00:25:637
0.651;-12.011;-7.051;-2.687;-8.958;-2.949;4.586;-5.938;-3.703;-0.313;0.414;-0.5;-7.7;-3.0;20.0;52.59;6486;2018-04-16 23:00:25:647
-0.15;-11.189;-8.195;-2.542;-8.979;-3.015;2.943;-2.612;-4.397;-0.011;1.063;-0.608;-7.7;-2.9;20.1;52.59;6496;2018-04-16 23:00:25:657
-0.15;-11.189;-8.195;-2.371;-9.043;-2.962;0.861;-1.33;-5.726;0.531;0.943;-0.665;-7.7;-2.9;20.1;58.26;6506;2018-04-16 23:00:25:667
-2.2;-10.064;-8.144;-2.371;-9.043;-2.962;0.861;-1.33;-5.726;0.806;-0.144;-0.574;-7.6;-2.9;20.0;58.26;6516;2018-04-16 23:00:25:677
-3.737;-9.555;-4.28;-2.312;-9.112;-2.792;-1.426;-0.443;-1.487;0.808;-0.83;-0.429;-7.6;-2.9;20.0;58.26;6526;2018-04-16 23:00:25:687
-3.737;-9.555;-4.28;-2.312;-9.112;-2.792;-1.426;-0.443;-1.487;0.808;-0.83;-0.429;-7.5;-2.8;20.0;58.26;6536;2018-04-16 23:00:25:697
-4.138;-8.575;-2.228;-2.312;-9.112;-2.792;-1.426;-0.443;-1.487;0.685;-0.882;-0.321;-7.5;-2.8;20.0;58.26;6546;2018-04-16 23:00:25:707
-4.24;-9.373;-0.225;-2.313;-9.161;-2.625;-1.888;0.603;0.552;0.401;-0.789;-0.393;-7.3;-2.8;20.2;58.26;6556;2018-04-16 23:00:25:717
-4.24;-9.373;-0.225;-2.313;-9.161;-2.625;-1.888;0.603;0.552;0.147;-0.616;-0.417;-7.3;-2.8;20.2;58.26;6566;2018-04-16 23:00:25:727
-3.809;-10.599;1.217;-2.273;-9.189;-2.562;-1.536;-1.41;3.78;0.081;-0.203;-0.353;-7.0;-2.7;20.4;58.26;6576;2018-04-16 23:00:25:737
-4.132;-11.918;1.41;-2.273;-9.189;-2.562;-1.536;-1.41;3.78;0.117;0.26;-0.27;-7.0;-2.7;20.4;58.26;6586;2018-04-16 23:00:25:747
-4.132;-11.918;1.41;-2.211;-9.207;-2.553;-2.53;-2.514;3.15;0.123;0.457;-0.219;-6.9;-2.5;20.5;58.26;6596;2018-04-16 23:00:25:757
-4.784;-10.879;-1.678;-2.126;-9.213;-2.603;-2.282;-0.206;0.78;-0.072;0.832;-0.22;-6.9;-2.5;20.5;58.26;6606;2018-04-16 23:00:25:767
-4.853;-7.398;0.532;-2.126;-9.213;-2.603;-2.282;-0.206;0.78;-0.254;1.021;-0.492;-6.7;-2.3;20.6;58.26;6616;2018-04-16 23:00:25:777
-4.853;-7.398;0.532;-1.972;-9.225;-2.681;-3.353;3.432;4.126;-0.128;1.246;-0.547;-6.7;-2.3;20.6;58.26;6626;2018-04-16 23:00:25:787
-5.442;-5.191;0.98;-1.972;-9.225;-2.681;-3.353;3.432;4.126;-0.128;1.246;-0.547;-6.6;-2.0;20.7;58.26;6636;2018-04-16 23:00:25:797
-6.379;-4.543;-2.664;-1.847;-9.254;-2.669;-4.532;4.711;0.006;0.264;1.223;-0.37;-6.6;-2.0;20.7;58.26;6646;2018-04-16 23:00:25:807
-6.379;-4.543;-2.664;-1.847;-9.254;-2.669;-4.532;4.711;0.006;0.665;0.398;-0.183;-6.5;-1.8;20.7;58.26;6656;2018-04-16 23:00:25:817
-7.07;-7.432;2.045;-1.847;-9.254;-2.669;-4.532;4.711;0.006;1.167;-0.465;0.153;-6.5;-1.6;20.6;58.26;6666;2018-04-16 23:00:25:827
-6.317;-8.325;2.18;-1.922;-9.307;-2.42;-4.661;1.641;4.694;1.416;-0.111;0.602;-6.5;-1.6;20.6;58.26;6676;2018-04-16 23:00:25:837
-6.317;-8.325;2.18;-2.035;-9.343;-2.176;-4.726;-0.302;4.383;1.31;0.406;0.677;-6.4;-1.3;20.7;58.26;6686;2018-04-16 23:00:25:847
-6.797;-10.153;1.872;-2.035;-9.343;-2.176;-4.726;-0.302;4.383;1.31;0.406;0.677;-6.4;-1.3;20.7;58.26;6696;2018-04-16 23:00:25:857
-6.331;-10.28;1.082;-2.035;-9.343;-2.176;-4.726;-0.302;4.383;0.836;1.418;0.861;-6.4;-1.0;20.7;58.26;6706;2018-04-16 23:00:25:867
-5.805;-10.031;0.439;-2.138;-9.349;-2.046;-3.997;-0.862;2.87;0.511;1.664;0.874;-6.3;-0.9;20.8;58.26;6717;2018-04-16 23:00:25:878
-4.927;-9.407;-0.178;-2.234;-9.325;-2.053;-2.693;-0.081;1.875;0.21;1.698;0.876;-6.3;-0.9;20.8;58.26;6727;2018-04-16 23:00:25:888
-4.927;-9.407;-0.178;-2.234;-9.325;-2.053;-2.693;-0.081;1.875;0.21;1.698;0.876;-6.4;-0.5;20.7;58.26;6737;2018-04-16 23:00:25:898
-4.295;-8.871;-0.554;-2.234;-9.325;-2.053;-2.693;-0.081;1.875;-0.203;1.301;0.915;-6.4;-0.5;20.7;58.26;6747;2018-04-16 23:00:25:908
-3.358;-8.359;-1.262;-2.362;-9.274;-2.14;-1.546;0.683;1.452;-0.407;0.768;0.894;-6.7;-0.2;20.5;58.26;6756;2018-04-16 23:00:25:917
-3.358;-8.359;-1.262;-2.522;-9.214;-2.215;-0.436;0.582;-0.164;-0.407;0.768;0.894;-6.7;-0.2;20.5;58.26;6766;2018-04-16 23:00:25:927
-2.048;-8.718;-2.447;-2.522;-9.214;-2.215;-0.436;0.582;-0.164;-0.093;-0.773;0.966;-7.0;0.0;20.5;58.26;6776;2018-04-16 23:00:25:937
-2.048;-8.718;-2.447;-2.778;-9.181;-2.04;1.019;0.169;0.538;0.345;-2.192;0.937;-7.0;0.0;20.5;58.26;6786;2018-04-16 23:00:25:947
-1.911;-9.303;-0.836;-2.778;-9.181;-2.04;1.019;0.169;0.538;0.516;-3.09;0.749;-7.3;0.3;20.3;58.26;6796;2018-04-16 23:00:25:957
-2.658;-10.338;0.107;-3.002;-9.168;-1.764;0.345;-1.171;1.87;0.316;-3.564;0.459;-7.3;0.3;20.3;58.26;6806;2018-04-16 23:00:25:967
-2.658;-10.338;0.107;-3.002;-9.168;-1.764;0.345;-1.171;1.87;0.316;-3.564;0.459;-7.5;0.6;20.4;58.26;6816;2018-04-16 23:00:25:977
-2.391;-10.834;0.644;-3.231;-9.14;-1.478;1.311;-1.671;2.245;0.219;-3.798;0.556;-7.5;0.6;20.4;57.76;6826;2018-04-16 23:00:25:987
-0.26;-10.11;1.462;-3.231;-9.14;-1.478;1.311;-1.671;2.245;0.651;-4.217;0.773;-7.6;1.0;20.2;57.76;6836;2018-04-16 23:00:25:997
-0.26;-10.11;1.462;-3.231;-9.14;-1.478;1.311;-1.671;2.245;0.651;-4.217;0.773;-7.5;1.2;20.2;57.76;6847;2018-04-16 23:00:26:008
0.624;-9.41;2.011;-3.443;-9.127;-1.006;3.945;-0.468;2.895;1.188;-4.324;0.696;-7.4;1.4;20.2;57.76;6856;2018-04-16 23:00:26:017
0.624;-9.41;2.011;-3.443;-9.127;-1.006;3.945;-0.468;2.895;1.817;-3.89;0.356;-7.4;1.4;20.2;57.76;6866;2018-04-16 23:00:26:027
0.314;-9.035;2.09;-3.53;-9.141;-0.392;3.844;0.106;2.482;2.038;-2.729;0.017;-7.0;1.7;20.1;57.76;6876;2018-04-16 23:00:26:037
-0.778;-8.596;1.802;-3.524;-9.151;0.117;2.455;0.682;1.382;1.985;-1.528;-0.09;-7.0;1.7;20.1;57.76;6886;2018-04-16 23:00:26:047
-1.416;-8.485;0.614;-3.524;-9.151;0.117;2.455;0.682;1.382;1.747;-0.294;-0.186;-4.7;3.3;19.7;57.76;6897;2018-04-16 23:00:26:058
-1.416;-8.485;0.614;-3.524;-9.151;0.117;2.455;0.682;1.382;1.747;-0.294;-0.186;-4.7;3.3;19.7;57.76;6907;2018-04-16 23:00:26:068
-2.134;-8.671;-0.116;-3.479;-9.16;0.386;1.729;0.648;-0.374;1.207;0.952;-0.34;-3.4;5.0;19.7;57.76;6916;2018-04-16 23:00:26:077
-2.361;-8.31;-0.463;-3.437;-9.173;0.465;1.076;0.863;-0.929;0.833;1.409;-0.25;-3.4;5.0;19.7;57.76;6926;2018-04-16 23:00:26:087
-2.472;-8.207;-0.852;-3.437;-9.173;0.465;1.076;0.863;-0.929;0.728;1.407;-0.209;-2.7;5.8;18.9;57.76;6941;2018-04-16 23:00:26:102
-2.472;-8.207;-0.852;-3.411;-9.18;0.512;0.77;0.885;-1.332;0.728;1.407;-0.209;-2.7;5.8;18.9;57.76;6946;2018-04-16 23:00:26:107
-2.998;-8.389;-0.543;-3.411;-9.18;0.512;0.77;0.885;-1.332;0.766;1.014;-0.188;-2.7;6.5;20.3;57.76;6956;2018-04-16 23:00:26:117
-2.998;-8.389;-0.543;-3.411;-9.18;0.512;0.77;0.885;-1.332;0.878;0.661;-0.138;-2.7;6.5;20.3;57.76;6966;2018-04-16 23:00:26:127
-3.509;-8.563;-0.011;-3.395;-9.179;0.629;0.069;0.736;-0.85;1.159;0.173;-0.053;-3.1;6.1;18.0;57.76;6976;2018-04-16 23:00:26:137
-3.824;-9.008;0.533;-3.393;-9.161;0.857;-0.431;0.153;-0.325;1.379;-0.065;-0.024;-3.1;6.1;18.0;57.76;6986;2018-04-16 23:00:26:147
-3.824;-9.008;0.533;-3.393;-9.161;0.857;-0.431;0.153;-0.325;1.547;-0.133;-0.012;-2.9;7.7;18.4;57.76;6996;2018-04-16 23:00:26:157
-4.057;-9.352;0.846;-3.393;-9.161;0.857;-0.431;0.153;-0.325;1.603;-0.021;0.0;-2.9;8.6;19.8;57.76;7006;2018-04-16 23:00:26:167
-4.057;-9.352;0.846;-3.394;-9.128;1.151;-0.681;-0.245;-0.434;1.58;0.162;0.031;-2.9;8.6;19.8;57.76;7016;2018-04-16 23:00:26:177
-4.142;-9.336;0.192;-3.394;-9.128;1.151;-0.681;-0.245;-0.434;1.604;0.231;0.033;-2.9;9.0;18.5;57.76;7026;2018-04-16 23:00:26:187
-4.142;-9.336;0.192;-3.409;-9.084;1.426;-0.733;-0.252;-1.234;1.604;0.231;0.033;-2.9;9.0;18.5;57.76;7036;2018-04-16 23:00:26:197
-4.215;-9.48;-0.238;-3.432;-9.019;1.748;-0.387;-0.303;-2.547;1.828;0.12;0.046;-2.5;10.1;18.2;57.76;7046;2018-04-16 23:00:26:207
-3.153;-9.023;-1.997;-3.432;-9.019;1.748;-0.387;-0.303;-2.547;1.929;0.155;0.119;-2.5;10.1;18.2;57.76;7056;2018-04-16 23:00:26:217
-3.153;-9.023;-1.997;-3.432;-9.019;1.748;0.855;-0.175;-5.233;1.848;0.257;0.089;-2.7;10.5;17.3;57.76;7066;2018-04-16 23:00:26:227
-2.608;-9.124;-3.212;-3.464;-8.949;2.021;0.855;-0.175;-5.233;1.607;0.448;0.028;-2.7;10.5;17.3;57.76;7076;2018-04-16 23:00:26:237
-1.318;-9.84;-3.929;-3.464;-8.949;2.021;0.855;-0.175;-5.233;1.122;0.784;-0.009;-2.6;11.1;16.7;57.76;7086;2018-04-16 23:00:26:247
-1.318;-9.84;-3.929;-3.495;-8.907;2.149;2.177;-0.933;-6.078;1.122;0.784;-0.009;-2.6;11.1;16.7;57.76;7096;2018-04-16 23:00:26:257
-0.209;-11.107;-2.473;-3.524;-8.915;2.067;3.409;-2.255;-4.253;-0.111;0.921;-0.046;-2.6;11.0;16.7;57.76;7105;2018-04-16 23:00:26:266
-0.162;-11.465;-1.314;-3.524;-8.915;2.067;3.409;-2.255;-4.253;-0.494;0.508;-0.037;-2.6;11.0;16.7;57.76;7116;2018-04-16 23:00:26:277
-0.162;-11.465;-1.314;-3.52;-8.94;1.963;3.17;-2.786;-2.337;-0.619;0.012;-0.013;-2.5;11.2;17.1;57.76;7126;2018-04-16 23:00:26:287
-0.552;-11.764;0.266;-3.52;-8.94;1.963;3.17;-2.786;-2.337;-0.491;-0.417;-0.035;-2.5;11.2;17.1;57.76;7136;2018-04-16 23:00:26:297
-1.559;-11.942;1.069;-3.464;-8.962;1.964;1.905;-2.98;-0.895;-0.242;-0.641;-0.171;-2.5;11.5;16.6;57.76;7146;2018-04-16 23:00:26:307
-1.559;-11.942;1.069;-3.464;-8.962;1.964;1.905;-2.98;-0.895;-0.026;-0.637;-0.304;-2.5;11.5;16.6;57.76;7156;2018-04-16 23:00:26:317
-1.653;-11.952;0.439;-3.371;-8.985;2.018;1.741;-2.993;-1.976;0.112;-0.522;-0.396;-2.1;11.6;18.0;54.42;7166;2018-04-16 23:00:26:327
-1.712;-12.213;-0.87;-3.371;-8.985;2.018;1.741;-2.993;-1.976;0.177;-0.387;-0.479;-2.1;11.6;18.0;54.42;7176;2018-04-16 23:00:26:337
-1.712;-12.213;-0.87;-3.371;-8.985;2.018;1.741;-2.993;-1.976;0.161;-0.205;-0.555;-2.1;11.7;17.3;54.42;7187;2018-04-16 23:00:26:348
-1.917;-12.492;-1.839;-3.262;-9.017;2.053;1.346;-3.475;-3.892;0.161;-0.205;-0.555;-2.1;11.7;17.3;54.42;7196;2018-04-16 23:00:26:357
-1.917;-12.492;-1.839;-3.262;-9.017;2.053;1.346;-3.475;-3.892;-0.02;0.089;-0.638;-2.4;12.0;17.1;54.42;7206;2018-04-16 23:00:26:367
-2.799;-12.993;-2.838;-3.154;-9.08;1.942;0.355;-3.913;-4.781;-0.921;0.716;-0.72;-2.4;12.0;17.1;54.42;7216;2018-04-16 23:00:26:377
-3.154;-12.729;-3.34;-3.057;-9.174;1.632;-0.316;-3.424;-5.002;-1.687;0.648;-0.645;-2.5;12.2;17.2;54.42;7226;2018-04-16 23:00:26:387
-4.005;-12.299;-3.042;-3.057;-9.174;1.632;-0.316;-3.424;-5.002;-2.161;0.418;-0.601;-2.5;12.2;17.2;54.42;7236;2018-04-16 23:00:26:397
-4.005;-12.299;-3.042;-2.957;-9.277;1.171;-1.991;-2.718;-3.85;-2.589;0.165;-0.573;-2.8;12.6;17.1;54.42;7246;2018-04-16 23:00:26:407
-5.282;-11.801;-2.03;-2.957;-9.277;1.171;-1.991;-2.718;-3.85;-2.589;0.165;-0.573;-2.8;12.6;17.1;54.42;7256;2018-04-16 23:00:26:417
-5.632;-11.594;-0.119;-2.957;-9.277;0.591;-1.991;-2.718;-3.85;-3.179;-0.048;-0.485;-3.1;12.9;17.0;54.42;7267;2018-04-16 23:00:26:428
-5.898;-11.599;2.142;-2.861;-9.361;0.591;-2.846;-2.179;0.026;-3.211;0.068;-0.434;-3.1;12.9;17.0;54.42;7276;2018-04-16 23:00:26:437
-5.898;-11.599;2.142;-2.788;-9.402;0.0;-3.013;-2.313;3.383;-3.108;0.23;-0.374;-3.4;13.2;17.2;54.42;7286;2018-04-16 23:00:26:447
-5.705;-11.823;4.244;-2.759;-9.407;-0.259;-2.831;-2.476;5.011;-2.872;0.564;-0.324;-3.7;13.1;17.3;54.42;7296;2018-04-16 23:00:26:457
-5.705;-11.823;4.244;-2.759;-9.407;-0.259;-2.831;-2.476;5.011;-2.872;0.564;-0.324;-3.7;13.1;17.3;54.42;7305;2018-04-16 23:00:26:466
-5.604;-11.802;5.394;-2.671;-9.4;-0.824;-3.366;-2.201;5.783;-2.602;1.4;-0.392;-3.7;13.1;17.3;54.42;7316;2018-04-16 23:00:26:477
-6.424;-11.487;4.902;-2.671;-9.4;-0.824;-3.366;-2.201;5.783;-2.283;2.131;-0.39;-4.2;12.4;17.8;54.42;7326;2018-04-16 23:00:26:487
-6.966;-11.042;5.368;-2.559;-9.371;-1.34;-4.407;-1.671;6.708;-1.928;2.445;-0.265;-4.2;12.4;17.8;54.42;7336;2018-04-16 23:00:26:497
-6.966;-11.042;5.368;-2.559;-9.371;-1.34;-4.407;-1.671;6.708;-1.928;2.445;-0.265;-6.0;10.1;19.0;54.42;7345;2018-04-16 23:00:26:506
-5.981;-10.112;2.533;-2.447;-9.336;-1.735;-3.587;-0.854;3.179;-1.328;2.632;-0.199;-6.0;10.1;19.0;54.42;7356;2018-04-16 23:00:26:517
-5.89;-10.914;-3.209;-2.447;-9.336;-1.735;-3.587;-0.854;3.179;-1.296;2.505;-0.206;-7.4;8.9;20.5;54.42;7366;2018-04-16 23:00:26:527
-5.89;-10.914;-3.209;-2.34;-9.294;-2.079;-2.508;-1.538;-3.694;-1.296;2.505;-0.206;-7.4;8.9;20.5;54.42;7376;2018-04-16 23:00:26:537
-4.266;-10.469;-4.972;-2.34;-9.294;-2.079;-2.508;-1.538;-3.694;-1.317;1.091;-0.024;-8.6;7.9;19.9;54.42;7386;2018-04-16 23:00:26:547
-4.005;-9.462;-1.458;-2.324;-9.237;-2.333;-1.682;-0.225;0.875;-1.258;0.061;-0.028;-8.6;7.9;19.9;54.42;7396;2018-04-16 23:00:26:557
-4.005;-9.462;-1.458;-2.324;-9.237;-2.333;-1.682;-0.225;0.875;-1.258;0.061;-0.028;-9.9;6.5;19.8;54.42;7406;2018-04-16 23:00:26:567
-2.978;-8.085;2.139;-2.309;-9.197;-2.501;-0.341;1.424;5.034;-1.058;-0.006;-0.022;-9.9;6.5;19.8;54.42;7416;2018-04-16 23:00:26:577
-2.978;-8.085;2.139;-2.309;-9.197;-2.501;-0.341;1.424;5.034;-0.648;0.881;-0.112;-10.1;5.0;21.3;54.42;7426;2018-04-16 23:00:26:587
-2.373;-7.245;2.871;-2.252;-9.187;-2.587;-0.121;1.943;5.457;-0.516;1.36;-0.192;-10.1;5.0;21.3;54.42;7436;2018-04-16 23:00:26:597
-2.394;-6.926;0.261;-2.034;-9.197;-2.729;-0.36;2.27;2.99;-0.161;2.724;-0.403;-11.5;4.3;21.3;54.42;7446;2018-04-16 23:00:26:607
-2.394;-6.926;0.261;-2.034;-9.197;-2.729;-0.36;2.27;2.99;0.114;3.016;-0.491;-11.5;4.3;21.3;54.42;7456;2018-04-16 23:00:26:617
-3.311;-6.598;-1.331;-1.795;-9.225;-2.803;-1.555;2.721;1.116;0.241;2.585;-0.42;-12.5;3.9;22.4;54.42;7466;2018-04-16 23:00:26:627
-3.229;-6.434;-2.783;-1.795;-9.225;-2.803;-1.555;2.721;1.116;0.241;2.585;-0.42;-12.5;3.9;22.4;54.42;7476;2018-04-16 23:00:26:637
-3.229;-6.434;-2.783;-1.795;-9.225;-2.803;-1.555;2.721;1.116;0.092;1.002;-0.291;-14.5;3.4;21.0;53.9;7487;2018-04-16 23:00:26:648
-3.668;-6.243;-2.379;-1.696;-9.236;-2.826;-1.972;2.993;0.447;-0.384;-0.651;-0.156;-14.5;3.4;21.0;53.9;7498;2018-04-16 23:00:26:659
-2.144;-5.301;4.6;-1.805;-9.183;-2.929;-0.339;3.883;7.529;-1.064;-1.956;0.153;-14.3;3.4;20.1;53.9;7506;2018-04-16 23:00:26:667
-2.144;-5.301;4.6;-1.805;-9.183;-2.929;-0.339;3.883;7.529;-1.064;-1.956;0.153;-14.3;3.4;20.1;53.9;7516;2018-04-16 23:00:26:677
-3.311;-4.592;2.207;-1.842;-9.104;-3.146;-1.964;4.694;4.805;-1.283;-0.59;0.023;-14.3;2.5;21.3;53.9;7525;2018-04-16 23:00:26:686
-5.049;-3.895;0.47;-1.842;-9.104;-3.146;-1.964;4.694;4.805;-1.531;0.729;-0.062;-14.3;2.5;21.3;53.9;7535;2018-04-16 23:00:26:696
-5.807;-3.381;-0.04;-1.785;-9.01;-3.435;-4.022;5.629;3.396;-1.365;0.847;-0.002;-13.9;3.1;21.2;53.9;7546;2018-04-16 23:00:26:707
-5.807;-3.381;-0.04;-1.785;-9.01;-3.435;-4.022;5.629;3.396;-0.872;0.507;0.115;-13.9;3.1;21.2;53.9;7555;2018-04-16 23:00:26:716
-5.488;-2.464;0.014;-1.785;-9.01;-3.435;-4.022;5.629;3.396;-0.274;0.167;0.246;-13.9;2.3;22.0;53.9;7565;2018-04-16 23:00:26:726
-3.998;-2.581;-0.442;-1.798;-8.965;-3.544;-3.264;6.572;3.426;0.209;-0.078;0.354;-13.9;2.3;22.0;53.9;7576;2018-04-16 23:00:26:737
-3.998;-2.581;-0.442;-1.798;-8.965;-3.544;-3.264;6.572;3.426;0.538;-0.22;0.445;-14.3;1.8;21.3;53.9;7586;2018-04-16 23:00:26:747
-2.204;-3.311;-1.319;-1.894;-8.987;-3.438;-0.979;5.967;2.58;0.766;-0.297;0.517;-14.3;1.8;21.3;53.9;7596;2018-04-16 23:00:26:757
-2.204;-3.311;-1.319;-1.894;-8.987;-3.438;-0.979;5.967;2.58;0.926;-0.451;0.575;-14.1;2.3;21.5;53.9;7606;2018-04-16 23:00:26:767
-0.86;-4.164;-2.563;-2.03;-9.026;-3.252;0.876;5.142;1.057;1.036;-0.772;0.599;-13.9;2.3;21.7;53.9;7616;2018-04-16 23:00:26:777
-0.006;-7.293;-4.524;-2.107;-9.046;-3.146;2.048;3.385;-0.588;1.036;-0.772;0.599;-13.9;2.3;21.7;53.9;7626;2018-04-16 23:00:26:787
-0.041;-12.245;-7.25;-2.322;-9.082;-2.88;2.281;-3.163;-4.37;1.117;-1.58;0.575;-13.8;2.5;21.5;53.9;7636;2018-04-16 23:00:26:797
-0.041;-12.245;-7.25;-2.322;-9.082;-2.88;2.281;-3.163;-4.37;0.907;-2.502;0.705;-13.8;2.5;21.5;53.9;7646;2018-04-16 23:00:26:807
0.96;-14.406;-8.885;-2.481;-9.084;-2.736;3.441;-5.321;-6.149;0.507;-2.928;0.779;-14.1;2.3;21.6;53.9;7656;2018-04-16 23:00:26:817
3.506;-16.901;-11.253;-2.481;-9.084;-2.736;3.441;-5.321;-6.149;0.507;-2.928;0.52;-14.1;2.3;21.6;53.9;7666;2018-04-16 23:00:26:827
4.08;-17.055;-7.879;-2.756;-9.045;-2.6;6.262;-7.855;-8.653;-0.404;-2.892;0.52;-14.3;2.2;21.5;53.9;7676;2018-04-16 23:00:26:837
4.08;-17.055;-7.879;-2.756;-9.045;-2.6;6.262;-7.855;-8.653;-1.131;-1.642;-0.106;-14.3;2.2;21.5;53.9;7686;2018-04-16 23:00:26:847
2.668;-15.159;-5.42;-2.817;-8.995;-2.706;5.485;-6.164;-2.715;-1.095;-0.529;-0.413;-14.4;2.0;21.7;53.9;7697;2018-04-16 23:00:26:858
0.67;-12.7;-6.595;-2.817;-8.995;-2.706;5.485;-6.164;-2.715;-0.914;0.398;-0.641;-14.4;2.0;21.7;53.9;7706;2018-04-16 23:00:26:867
-0.388;-11.902;-7.532;-2.68;-8.98;-2.888;2.786;-3.314;-4.418;-0.65;0.947;-0.779;-14.3;2.0;21.9;53.9;7716;2018-04-16 23:00:26:877
-0.388;-11.902;-7.532;-2.68;-8.98;-2.888;2.786;-3.314;-4.418;-0.65;0.947;-0.779;-14.3;2.0;21.9;53.9;7726;2018-04-16 23:00:26:887
-1.829;-11.246;-7.533;-2.466;-9.015;-2.969;0.636;-2.23;-4.565;0.144;1.129;-0.841;-14.3;2.0;22.0;53.9;7736;2018-04-16 23:00:26:897
-5.363;-12.121;-3.541;-2.315;-9.113;-2.785;-3.048;-3.007;-0.756;1.289;-0.073;-0.691;-14.3;2.0;22.0;53.9;7746;2018-04-16 23:00:26:907
-5.363;-12.121;-3.541;-2.315;-9.113;-2.785;-3.048;-3.007;-0.756;1.289;-0.073;-0.691;-14.3;1.9;22.3;53.9;7756;2018-04-16 23:00:26:917
-7.016;-11.732;-2.859;-2.251;-9.204;-2.525;-5.1;-3.007;-0.026;1.362;-0.536;-0.491;-14.3;1.9;22.3;53.9;7766;2018-04-16 23:00:26:927
-6.67;-13.659;-1.014;-2.223;-9.227;-2.466;-4.447;-4.432;1.453;0.837;-0.777;-0.539;-14.1;1.9;22.4;53.9;7776;2018-04-16 23:00:26:937
-6.67;-13.659;-1.014;-2.223;-9.227;-2.466;-4.447;-4.432;1.453;0.222;-0.472;-0.529;-14.1;1.9;22.4;53.9;7786;2018-04-16 23:00:26:947
-5.82;-11.508;2.041;-2.223;-9.227;-2.466;-4.447;-4.432;1.453;-0.32;0.623;-0.538;-13.8;2.0;22.6;53.9;7796;2018-04-16 23:00:26:957
-4.841;-5.428;2.714;-2.097;-9.237;-2.538;-3.508;-0.1;4.889;-0.575;1.588;-0.539;-13.8;2.0;22.6;56.45;7806;2018-04-16 23:00:26:967
-4.841;-5.428;2.714;-1.888;-9.234;-2.709;-2.247;5.917;4.901;-0.487;1.791;-0.691;-13.6;2.1;22.9;56.45;7816;2018-04-16 23:00:26:977
-3.856;-2.617;1.863;-1.888;-9.234;-2.709;-2.247;5.917;4.901;-0.487;1.791;-0.691;-13.6;2.1;22.9;56.45;7826;2018-04-16 23:00:26:987
-4.153;-2.683;1.533;-1.677;-9.247;-2.802;-2.476;6.564;4.335;-0.29;1.702;-0.698;-13.6;2.2;23.1;56.45;7836;2018-04-16 23:00:26:997
-4.153;-2.683;1.533;-1.677;-9.26;-2.798;-3.597;5.026;3.942;0.195;1.648;-0.347;-13.6;2.2;23.2;56.45;7847;2018-04-16 23:00:27:008
-5.204;-4.234;1.143;-1.607;-9.26;-2.798;-3.597;5.026;3.942;0.546;1.505;0.181;-13.6;2.2;23.2;56.45;7856;2018-04-16 23:00:27:017
-7.167;-7.223;0.664;-1.607;-9.26;-2.798;-3.597;5.026;3.942;0.64;1.4;0.389;-13.6;2.3;23.2;56.45;7866;2018-04-16 23:00:27:027
-9.221;-10.756;1.141;-1.615;-9.284;-2.716;-6.221;0.99;3.51;0.838;1.144;0.926;-13.6;2.3;23.2;56.45;7876;2018-04-16 23:00:27:037
-9.221;-10.756;1.141;-1.615;-9.284;-2.716;-6.221;0.99;3.51;0.838;1.144;0.926;-13.7;2.4;23.3;56.45;7885;2018-04-16 23:00:27:046
-8.886;-12.523;0.867;-1.751;-9.293;-2.596;-7.934;-3.153;3.63;0.843;1.139;1.23;-13.7;2.4;23.3;56.45;7896;2018-04-16 23:00:27:057
-8.886;-12.523;0.867;-1.909;-9.289;-2.499;-5.937;-2.402;3.221;0.749;1.14;1.169;-13.7;2.6;23.3;56.45;7906;2018-04-16 23:00:27:067
-6.984;-10.739;0.518;-1.909;-9.289;-2.499;-5.937;-2.402;3.221;0.652;1.135;1.048;-13.7;2.6;23.3;56.45;7916;2018-04-16 23:00:27:077
-5.315;-8.739;-0.247;-2.057;-9.276;-2.428;-3.258;0.537;2.181;0.582;1.092;1.035;-13.8;2.8;23.4;56.45;7926;2018-04-16 23:00:27:087
-4.028;-7.484;-0.794;-2.057;-9.276;-2.428;-3.258;0.537;2.181;0.368;0.744;1.128;-14.1;3.0;23.3;56.45;7936;2018-04-16 23:00:27:097
-4.028;-7.484;-0.794;-2.057;-9.276;-2.428;-3.258;0.537;2.181;0.368;0.744;1.128;-14.1;3.0;23.3;56.45;7947;2018-04-16 23:00:27:108
-3.275;-7.174;-1.03;-2.236;-9.245;-2.388;-1.675;1.875;1.544;0.299;0.61;1.14;-14.2;3.1;23.3;56.45;7956;2018-04-16 23:00:27:117
-3.275;-7.174;-1.03;-2.449;-9.195;-2.371;-0.475;1.784;1.089;0.114;0.084;1.175;-14.2;3.1;23.3;56.45;7966;2018-04-16 23:00:27:127
-2.895;-7.813;-1.669;-2.449;-9.195;-2.371;-0.475;1.784;1.089;-0.033;-0.677;1.142;-14.6;3.4;23.2;56.45;7976;2018-04-16 23:00:27:137
-2.895;-7.813;-1.669;-2.449;-9.195;-2.371;-0.475;1.784;1.089;0.14;-1.697;1.212;-14.6;3.4;23.2;56.45;7986;2018-04-16 23:00:27:147
-2.508;-9.116;-2.43;-2.722;-9.137;-2.296;0.214;0.021;-0.134;0.14;-1.697;1.212;-15.2;4.1;22.6;56.45;7996;2018-04-16 23:00:27:157
-1.289;-9.789;-1.513;-3.068;-9.102;-1.978;1.779;-1.007;1.021;0.632;-3.571;1.173;-15.2;4.1;22.6;56.45;8006;2018-04-16 23:00:27:167
-1.75;-10.776;-0.19;-3.068;-9.102;-1.978;1.779;-1.007;1.021;0.673;-4.347;0.877;-15.3;4.4;22.9;56.45;8016;2018-04-16 23:00:27:177
-1.75;-10.776;-0.19;-3.366;-9.076;-1.568;1.512;-1.973;1.756;0.566;-4.712;0.687;-15.2;4.5;23.0;56.45;8026;2018-04-16 23:00:27:187
-1.113;-11.031;0.668;-3.366;-9.076;-1.568;1.512;-1.973;1.756;0.601;-4.957;0.751;-15.2;4.5;23.0;56.45;8036;2018-04-16 23:00:27:197
-1.113;-11.031;0.668;-3.655;-9.043;-1.02;4.725;-0.867;2.459;1.203;-5.317;1.005;-14.7;5.0;23.1;56.45;8046;2018-04-16 23:00:27:207
1.573;-9.541;1.87;-3.655;-9.043;-1.02;4.725;-0.867;2.459;1.203;-5.317;1.005;-14.7;5.0;23.1;56.45;8056;2018-04-16 23:00:27:217
1.573;-8.645;2.709;-3.823;-9.028;-0.242;5.847;0.382;2.951;2.081;-5.202;0.811;-12.3;6.3;23.3;56.45;8066;2018-04-16 23:00:27:227
2.024;-8.645;2.709;-3.823;-9.028;-0.242;5.847;0.382;2.951;2.636;-3.726;0.353;-12.3;6.3;23.3;56.45;8076;2018-04-16 23:00:27:237
0.856;-8.134;2.114;-3.849;-9.009;0.447;4.268;0.874;1.206;2.65;-2.122;0.029;-9.2;8.2;24.4;56.45;8089;2018-04-16 23:00:27:250
-0.241;-8.338;0.627;-3.849;-9.009;0.447;4.268;0.874;1.206;2.65;-2.122;0.029;-7.7;9.6;23.5;56.45;8096;2018-04-16 23:00:27:257
-1.375;-9.036;-0.583;-3.796;-9.009;0.771;2.42;-0.026;-1.354;1.687;0.821;-0.369;-7.7;9.6;23.5;56.45;8106;2018-04-16 23:00:27:267
-1.375;-9.036;-0.583;-3.796;-9.009;0.771;2.42;-0.026;-1.354;1.184;1.257;-0.363;-6.2;11.3;24.1;56.45;8116;2018-04-16 23:00:27:277
-1.49;-8.602;-0.958;-3.758;-9.017;0.859;2.221;0.556;-1.807;0.935;1.296;-0.261;-6.2;11.3;24.1;57.83;8126;2018-04-16 23:00:27:287
-2.071;-8.8;-0.965;-3.758;-9.017;0.859;2.221;0.556;-1.807;0.935;1.296;-0.261;-6.4;11.9;23.6;57.83;8136;2018-04-16 23:00:27:297
-2.071;-8.8;-0.965;-3.724;-9.015;1.017;1.309;-0.412;-2.04;1.319;0.908;-0.252;-6.4;11.9;23.6;57.83;8146;2018-04-16 23:00:27:307
-2.606;-9.755;-1.015;-3.724;-9.015;1.017;1.309;-0.412;-2.04;1.609;0.652;-0.297;-7.5;13.3;22.9;57.83;8156;2018-04-16 23:00:27:317
-2.913;-9.798;-0.954;-3.724;-9.015;1.017;1.309;-0.412;-2.04;1.646;0.486;-0.275;-6.8;13.6;22.9;57.83;8166;2018-04-16 23:00:27:327
-3.239;-9.322;-0.758;-3.686;-9.0;1.256;0.688;-0.706;-2.152;1.456;0.484;-0.195;-6.8;13.6;22.9;57.83;8176;2018-04-16 23:00:27:337
-3.239;-9.322;-0.758;-3.686;-9.0;1.256;0.688;-0.706;-2.152;1.456;0.484;-0.195;-7.3;14.0;22.1;57.83;8185;2018-04-16 23:00:27:346
-4.001;-9.288;-0.636;-3.68;-8.98;1.408;0.013;-0.231;-2.067;0.9;0.704;-0.09;-7.3;14.0;22.1;57.83;8196;2018-04-16 23:00:27:357
-4.001;-9.288;-0.636;-3.68;-8.98;1.408;0.013;-0.231;-2.067;0.9;0.627;-0.066;-7.8;15.6;21.2;57.83;8206;2018-04-16 23:00:27:367
-4.9;-9.908;-0.573;-3.687;-8.96;1.516;-1.212;-0.949;-2.089;0.885;0.627;-0.066;-7.8;15.6;21.2;57.83;8216;2018-04-16 23:00:27:377
-4.994;-10.372;-0.351;-3.701;-8.922;1.693;-1.177;-1.414;-2.028;1.122;0.319;0.02;-7.8;15.9;19.4;57.83;8226;2018-04-16 23:00:27:387
-4.147;-9.872;-0.447;-3.701;-8.922;1.693;-1.177;-1.414;-2.028;1.252;0.155;0.087;-7.8;15.9;19.4;57.83;8235;2018-04-16 23:00:27:396
-3.179;-9.458;-1.182;-3.734;-8.869;1.892;0.554;-0.59;-3.073;1.244;0.114;0.154;-7.6;16.0;21.8;57.83;8248;2018-04-16 23:00:27:409
-3.179;-9.458;-1.182;-3.734;-8.869;1.892;0.554;-0.59;-3.073;1.131;0.065;0.191;-7.6;16.0;21.8;57.83;8255;2018-04-16 23:00:27:416
-1.7;-9.213;-2.607;-3.761;-8.828;2.022;2.45;-0.415;-4.794;0.955;-0.101;0.197;-7.7;17.1;19.8;57.83;8266;2018-04-16 23:00:27:427
-0.619;-9.561;-2.601;-3.761;-8.828;2.022;2.45;-0.415;-4.794;0.679;-0.244;0.172;-7.7;17.1;19.8;57.83;8276;2018-04-16 23:00:27:437
-0.619;-9.561;-2.601;-3.756;-8.823;2.054;3.321;-1.13;-4.092;0.291;-0.274;0.116;-7.1;17.5;21.1;57.83;8286;2018-04-16 23:00:27:447
-0.49;-10.301;-1.587;-3.756;-8.823;2.054;3.321;-1.13;-4.092;-0.294;-0.33;0.024;-7.1;17.5;21.1;57.83;8297;2018-04-16 23:00:27:458
-0.724;-10.672;-0.266;-3.738;-8.842;2.003;3.013;-1.83;-2.269;-0.546;-0.475;-0.015;-7.4;17.1;19.1;57.83;8306;2018-04-16 23:00:27:467
-0.724;-10.672;-0.266;-3.738;-8.842;2.003;3.013;-1.83;-2.269;-0.546;-0.475;-0.015;-7.4;17.1;19.1;57.83;8316;2018-04-16 23:00:27:477
-1.524;-11.061;1.423;-3.69;-8.872;1.961;1.951;-2.271;-0.386;-0.531;-0.674;-0.12;-7.0;17.0;20.8;57.83;8326;2018-04-16 23:00:27:487
-1.87;-11.21;1.106;-3.69;-8.872;1.961;1.951;-2.271;-0.386;-0.342;-0.6;-0.226;-7.0;17.0;20.8;57.83;8336;2018-04-16 23:00:27:497
-1.87;-11.21;1.106;-3.69;-8.872;1.961;1.951;-2.271;-0.386;-0.342;-0.6;-0.226;-6.8;16.9;20.3;57.83;8346;2018-04-16 23:00:27:507
-1.841;-11.243;0.879;-3.609;-8.906;1.956;1.79;-2.307;-0.981;-0.161;-0.346;-0.418;-6.8;16.9;20.3;57.83;8356;2018-04-16 23:00:27:517
-1.907;-11.413;0.214;-3.609;-8.906;1.956;1.79;-2.307;-0.981;-0.147;-0.175;-0.566;-6.3;17.1;20.9;57.83;8369;2018-04-16 23:00:27:530
-1.907;-11.413;0.214;-3.5;-8.952;1.942;1.51;-2.644;-1.922;-0.147;-0.175;-0.566;-6.3;17.1;20.9;57.83;8377;2018-04-16 23:00:27:538
-2.707;-13.367;-1.19;-3.363;-9.013;1.906;0.657;-4.354;-3.096;-0.191;-0.203;-0.682;-6.3;17.1;20.9;57.83;8386;2018-04-16 23:00:27:547
-2.707;-13.367;-1.19;-3.363;-9.013;1.906;0.657;-4.354;-3.096;-0.633;-0.012;-0.783;-6.5;17.1;20.8;57.83;8396;2018-04-16 23:00:27:557
-3.183;-13.834;-2.722;-3.227;-9.097;1.733;-0.253;-4.757;-4.784;-1.124;0.25;-0.777;-6.5;17.1;20.8;57.83;8406;2018-04-16 23:00:27:567
-3.944;-13.567;-2.977;-3.227;-9.097;1.733;-0.253;-4.757;-4.784;-1.124;0.25;-0.777;-6.7;17.4;20.6;57.83;8416;2018-04-16 23:00:27:577
-3.944;-13.567;-2.977;-3.114;-9.213;1.26;-1.382;-3.823;-3.278;-2.369;0.626;-0.706;-6.7;17.4;20.6;57.83;8426;2018-04-16 23:00:27:587
-4.963;-12.744;-1.41;-3.114;-9.213;1.26;-1.382;-3.823;-3.278;-2.816;0.586;-0.724;-6.9;17.6;20.4;57.83;8436;2018-04-16 23:00:27:597
-5.252;-11.885;1.003;-2.991;-9.315;0.671;-2.261;-2.569;0.333;-3.043;0.479;-0.717;-6.9;17.6;20.4;57.83;8446;2018-04-16 23:00:27:607
-5.252;-11.885;1.003;-2.991;-9.315;0.671;-2.261;-2.569;0.333;-2.985;0.364;-0.713;-7.1;17.7;20.4;57.83;8456;2018-04-16 23:00:27:617
-5.401;-11.303;3.011;-2.861;-9.379;0.099;-2.544;-1.877;3.167;-2.838;0.45;-0.693;-7.1;17.7;20.4;55.57;8466;2018-04-16 23:00:27:627
-5.349;-11.102;4.128;-2.861;-9.379;0.099;-2.544;-1.877;3.167;-2.838;0.45;-0.693;-7.4;17.5;20.4;55.57;8476;2018-04-16 23:00:27:637
-5.632;-11.108;4.653;-2.731;-9.409;-0.426;-2.902;-1.699;5.079;-2.597;0.76;-0.684;-7.4;17.5;20.4;55.57;8486;2018-04-16 23:00:27:647
-5.632;-11.108;4.653;-2.731;-9.409;-0.426;-2.902;-1.699;5.079;-2.431;1.152;-0.693;-7.5;16.9;20.9;55.57;8496;2018-04-16 23:00:27:657
-6.3;-10.862;4.334;-2.731;-9.409;-0.426;-2.902;-1.699;5.079;-2.293;1.647;-0.689;-8.2;15.3;22.0;55.57;8506;2018-04-16 23:00:27:667
-7.253;-10.384;3.487;-2.578;-9.414;-0.944;-3.907;-1.38;5.076;-2.145;2.043;-0.671;-9.6;12.6;24.0;55.57;8519;2018-04-16 23:00:27:680
-7.253;-10.384;3.487;-2.418;-9.397;-1.419;-4.984;-0.988;4.867;-1.856;2.257;-0.522;-9.6;12.6;24.0;55.57;8526;2018-04-16 23:00:27:687
-7.487;-10.792;2.043;-2.418;-9.397;-1.419;-4.984;-0.988;4.867;-1.856;2.257;-0.522;-9.6;12.6;24.0;55.57;8536;2018-04-16 23:00:27:697
-7.487;-10.792;2.043;-2.269;-9.362;-1.835;-4.861;-2.064;-1.434;-1.624;2.431;-0.391;-11.2;9.9;24.2;55.57;8546;2018-04-16 23:00:27:707
-6.845;-11.31;-4.298;-2.269;-9.362;-1.835;-4.861;-2.064;-1.434;-1.519;1.318;-0.258;-11.2;9.9;24.2;55.57;8556;2018-04-16 23:00:27:717
-5.69;-10.272;-3.648;-2.269;-9.362;-1.835;-4.861;-2.064;-1.434;-1.519;1.318;-0.258;-12.5;8.9;25.3;55.57;8566;2018-04-16 23:00:27:727
-5.69;-10.272;-3.648;-2.203;-9.312;-2.145;-3.032;-0.283;-0.557;-1.431;0.309;-0.142;-12.5;8.9;25.3;55.57;8576;2018-04-16 23:00:27:737
-4.536;-8.46;-0.436;-2.186;-9.258;-2.382;-2.479;1.705;3.603;-1.4;-0.049;-0.122;-14.2;6.2;26.5;55.57;8586;2018-04-16 23:00:27:747
-4.809;-7.084;2.558;-2.186;-9.258;-2.382;-2.479;1.705;3.603;-1.266;0.319;-0.21;-14.2;6.2;26.5;55.57;8596;2018-04-16 23:00:27:757
-4.809;-7.084;2.558;-2.103;-9.214;-2.616;-2.266;2.717;5.147;-1.086;0.974;-0.181;-13.9;5.8;26.2;55.57;8606;2018-04-16 23:00:27:767
-3.897;-6.24;1.881;-2.103;-9.214;-2.616;-2.266;2.717;5.147;-0.848;1.726;-0.164;-13.9;5.8;26.2;55.57;8616;2018-04-16 23:00:27:777
-3.897;-6.24;1.881;-2.103;-9.214;-2.616;-2.266;2.717;5.147;-0.624;2.23;-0.191;-15.1;4.0;26.1;55.57;8626;2018-04-16 23:00:27:787
-3.091;-6.081;0.397;-1.948;-9.189;-2.816;-1.143;3.108;3.214;-0.376;2.307;-0.261;-15.1;4.0;26.1;55.57;8637;2018-04-16 23:00:27:798
-2.636;-6.406;0.274;-1.948;-9.189;-2.816;-1.143;3.108;3.214;-0.089;2.024;-0.282;-16.8;3.1;25.4;55.57;8646;2018-04-16 23:00:27:807
-2.636;-6.406;0.274;-1.782;-9.196;-2.902;-0.663;2.785;3.376;-0.089;2.024;-0.282;-16.8;3.1;25.4;55.57;8656;2018-04-16 23:00:27:817
-2.124;-6.342;0.603;-1.638;-9.244;-2.836;-0.645;2.482;1.946;0.435;1.41;-0.334;-17.2;2.9;24.4;55.57;8666;2018-04-16 23:00:27:827
-2.862;-6.99;-1.937;-1.638;-9.244;-2.836;-0.645;2.482;1.946;0.667;0.384;-0.43;-17.2;2.9;24.4;55.57;8676;2018-04-16 23:00:27:837
-2.862;-6.99;-1.937;-1.581;-9.281;-2.745;-1.109;2.212;1.152;0.299;-0.617;-0.309;-18.5;3.2;25.2;55.57;8686;2018-04-16 23:00:27:847
-2.529;-7.031;-0.352;-1.581;-9.281;-2.745;-1.109;2.212;1.152;-0.243;-1.691;-0.189;-18.5;3.2;25.2;55.57;8696;2018-04-16 23:00:27:857
-2.158;-6.723;2.17;-1.652;-9.247;-2.817;-0.506;2.524;4.988;-0.666;-1.715;-0.072;-19.1;2.6;24.7;55.57;8706;2018-04-16 23:00:27:867
-2.158;-6.723;2.17;-1.652;-9.247;-2.817;-0.506;2.524;4.988;-1.073;-0.296;-0.064;-19.1;2.6;24.7;55.57;8716;2018-04-16 23:00:27:877
-3.475;-5.786;2.203;-1.652;-9.247;-2.817;-0.506;2.524;4.988;-1.073;-0.296;-0.064;-17.2;2.7;25.3;55.57;8725;2018-04-16 23:00:27:886
-4.549;-4.723;0.893;-1.632;-9.184;-3.028;-2.124;3.658;4.949;-1.152;0.558;-0.054;-17.2;2.7;25.3;55.57;8736;2018-04-16 23:00:27:897
-4.549;-3.907;0.151;-1.581;-9.135;-3.197;-3.428;5.228;3.347;-0.803;0.957;0.02;-17.0;1.4;25.9;55.57;8746;2018-04-16 23:00:27:907
-5.01;-3.907;0.151;-1.581;-9.135;-3.197;-3.428;5.228;3.347;-0.348;0.72;0.114;-17.0;1.4;25.9;55.57;8756;2018-04-16 23:00:27:917
-4.554;-2.957;-0.196;-1.581;-9.135;-3.197;-3.428;5.228;3.347;0.134;0.356;0.194;-17.8;1.7;27.4;55.57;8766;2018-04-16 23:00:27:927
-3.868;-2.875;-0.3;-1.596;-9.138;-3.18;-2.646;6.275;2.989;0.134;0.356;0.194;-17.4;1.6;27.2;55.57;8776;2018-04-16 23:00:27:937
-3.868;-2.875;-0.3;-1.596;-9.138;-3.18;-2.646;6.275;2.989;0.549;0.037;0.252;-17.4;1.6;27.2;57.11;8785;2018-04-16 23:00:27:946
-2.206;-3.916;-1.257;-1.669;-9.182;-3.014;-1.058;5.715;2.065;1.152;-0.621;0.42;-17.9;2.0;26.4;57.11;8796;2018-04-16 23:00:27:957
-1.299;-5.692;-2.011;-1.799;-9.235;-2.764;0.5;3.543;0.753;1.253;-0.943;0.485;-17.9;2.0;26.4;57.11;8806;2018-04-16 23:00:27:967
-1.299;-5.692;-2.011;-1.799;-9.235;-2.764;0.5;3.543;0.753;1.253;-0.943;0.485;-17.5;2.3;26.2;57.11;8816;2018-04-16 23:00:27:977
-1.041;-9.513;-3.51;-2.0;-9.272;-2.488;1.363;-1.135;-1.822;1.218;-1.467;0.654;-17.5;2.3;26.2;57.11;8826;2018-04-16 23:00:27:987
0.141;-12.208;-6.752;-2.0;-9.272;-2.488;1.363;-1.135;-1.822;1.005;-1.743;0.848;-17.5;2.2;26.3;57.11;8836;2018-04-16 23:00:27:997
0.141;-12.208;-6.752;-2.0;-9.272;-2.488;1.363;-1.135;-1.822;0.545;-1.951;0.955;-17.5;2.2;26.3;57.11;8846;2018-04-16 23:00:28:007
1.261;-14.161;-10.332;-2.267;-9.255;-2.317;3.528;-4.905;-8.015;-1.064;-2.261;0.682;-17.7;2.0;26.4;57.11;8856;2018-04-16 23:00:28:017
1.261;-14.161;-10.332;-2.267;-9.255;-2.317;3.528;-4.905;-8.015;-1.064;-2.261;0.682;-17.7;2.0;26.4;57.11;8866;2018-04-16 23:00:28:027
3.673;-17.163;-11.445;-2.494;-9.172;-2.413;6.167;-7.991;-9.033;-1.655;-1.786;0.005;-17.7;1.9;26.6;57.11;8876;2018-04-16 23:00:28:037
3.673;-17.163;-11.445;-2.494;-9.172;-2.413;6.255;-5.928;-0.918;-1.159;-0.859;-0.461;-17.7;1.9;26.6;57.11;8886;2018-04-16 23:00:28:047
3.746;-15.046;-3.513;-2.509;-9.118;-2.595;6.255;-5.928;-0.918;-1.159;-0.859;-0.461;-17.6;1.9;26.8;57.11;8896;2018-04-16 23:00:28:057
2.345;-12.06;-3.893;-2.304;-9.158;-2.643;4.481;-2.039;-1.85;-0.156;0.452;-0.992;-17.6;1.9;26.8;57.11;8906;2018-04-16 23:00:28:067
1.499;-10.171;-5.565;-2.304;-9.158;-2.643;4.481;-2.039;-1.85;0.414;1.145;-1.157;-17.4;1.8;27.0;57.11;8916;2018-04-16 23:00:28:077
1.499;-10.171;-5.565;-2.304;-9.158;-2.643;4.481;-2.039;-1.85;0.903;1.532;-1.234;-17.4;1.8;27.0;57.11;8926;2018-04-16 23:00:28:087
0.025;-10.087;-6.902;-2.002;-9.258;-2.539;2.027;-0.829;-4.363;1.304;0.94;-1.057;-17.2;1.8;27.2;57.11;8937;2018-04-16 23:00:28:098
-3.106;-9.5;-4.415;-1.817;-9.355;-2.314;-1.946;0.05;-1.611;1.323;0.16;-0.691;-17.2;1.8;27.2;57.11;8947;2018-04-16 23:00:28:108
-3.106;-8.714;-1.701;-1.817;-9.355;-2.314;-1.946;0.05;-1.611;1.019;-0.639;-0.25;-17.0;1.8;27.4;57.11;8956;2018-04-16 23:00:28:117
-4.809;-8.714;-1.701;-1.817;-9.355;-2.314;-1.946;0.05;-1.611;1.019;-0.639;-0.25;-17.0;1.8;27.4;57.11;8966;2018-04-16 23:00:28:127
-6.264;-10.195;1.508;-1.846;-9.392;-2.135;-3.702;0.046;3.116;0.566;-0.991;0.033;-16.8;1.9;27.7;57.11;8976;2018-04-16 23:00:28:137
-6.264;-10.195;1.508;-1.846;-9.392;-2.135;-3.702;0.046;3.116;-0.055;-0.651;0.089;-16.8;1.9;27.7;57.11;8986;2018-04-16 23:00:28:147
-8.526;-12.899;1.718;-1.882;-9.377;-2.17;-6.644;-3.522;3.888;-0.616;0.162;0.158;-16.4;2.0;27.8;57.11;8996;2018-04-16 23:00:28:157
-10.183;-16.829;-12.012;-1.882;-9.377;-2.17;-6.644;-3.522;3.888;-1.06;0.507;0.253;-16.4;2.0;27.8;57.11;9007;2018-04-16 23:00:28:168
-10.183;-16.829;-12.012;-1.913;-9.318;-2.383;-8.014;-7.402;-10.673;-1.06;0.507;0.253;-16.2;2.1;28.2;57.11;9016;2018-04-16 23:00:28:177
-7.836;-13.387;-4.535;-1.913;-9.318;-2.383;-8.014;-7.402;-10.673;-1.322;-0.505;0.165;-16.2;2.1;28.2;57.11;9026;2018-04-16 23:00:28:187
-5.467;-8.066;4.565;-1.925;-9.267;-2.567;-3.542;1.201;7.132;-0.786;0.115;-0.103;-16.0;2.2;28.5;57.11;9036;2018-04-16 23:00:28:197
-5.467;-8.066;4.565;-1.925;-9.267;-2.567;-3.542;1.201;7.132;-0.125;1.126;-0.389;-16.0;2.2;28.5;57.11;9046;2018-04-16 23:00:28:207
-4.29;-3.298;3.043;-1.776;-9.29;-2.59;-2.515;5.992;5.633;0.509;1.532;-0.412;-15.8;2.3;28.7;57.11;9056;2018-04-16 23:00:28:217
-4.292;-3.652;1.035;-1.677;-9.334;-2.497;-2.515;5.16;3.291;0.738;1.359;-0.184;-15.8;2.3;28.7;57.11;9066;2018-04-16 23:00:28:227
-5.065;-5.496;1.168;-1.677;-9.334;-2.497;-2.691;5.16;3.291;0.932;0.861;0.248;-15.6;2.4;28.8;57.11;9076;2018-04-16 23:00:28:237
-5.065;-5.496;1.168;-1.677;-9.334;-2.497;-2.691;5.16;3.291;0.992;0.724;0.566;-15.6;2.4;28.8;57.11;9086;2018-04-16 23:00:28:247
-6.009;-8.244;2.263;-1.725;-9.367;-2.336;-3.79;2.486;4.422;0.992;0.724;0.566;-15.5;2.5;28.9;57.11;9096;2018-04-16 23:00:28:257
-6.009;-8.244;2.263;-1.725;-9.367;-2.336;-3.79;2.486;4.422;0.87;1.012;0.866;-15.5;2.5;28.9;57.79;9106;2018-04-16 23:00:28:267
-6.651;-10.539;1.723;-1.84;-9.375;-2.214;-4.811;-1.165;3.936;0.602;1.246;0.918;-15.4;2.6;29.1;57.79;9116;2018-04-16 23:00:28:277
-6.837;-11.564;0.876;-1.946;-9.353;-2.214;-4.619;-2.194;2.743;0.138;1.44;0.885;-15.4;2.6;29.1;57.79;9125;2018-04-16 23:00:28:286
-5.776;-10.993;-0.075;-1.946;-9.353;-2.214;-4.619;-2.194;2.743;0.138;1.44;0.885;-15.4;2.7;29.3;57.79;9136;2018-04-16 23:00:28:297
-5.776;-10.993;-0.075;-1.946;-9.353;-2.214;-4.619;-2.194;2.743;-0.263;1.262;0.867;-15.4;2.7;29.3;57.79;9146;2018-04-16 23:00:28:307
-4.993;-9.926;-0.478;-2.052;-9.307;-2.312;-2.941;-0.62;1.834;-0.441;0.962;0.843;-15.6;2.7;29.3;57.79;9156;2018-04-16 23:00:28:317
-3.73;-8.088;-0.893;-2.191;-9.245;-2.429;-1.275;1.455;1.403;-0.555;0.606;0.838;-15.6;2.7;29.3;57.79;9166;2018-04-16 23:00:28:327
-2.701;-7.242;-1.276;-2.191;-9.245;-2.429;-1.275;1.455;1.403;-0.626;-0.148;0.82;-15.9;2.8;29.3;57.79;9176;2018-04-16 23:00:28:337
-2.701;-7.242;-1.276;-2.362;-9.178;-2.52;-0.28;1.953;1.174;-0.624;-0.815;0.764;-15.9;2.8;29.3;57.79;9186;2018-04-16 23:00:28:347
-2.787;-7.435;-1.257;-2.362;-9.178;-2.52;-0.28;1.953;1.174;-0.624;-0.815;0.764;-16.3;2.8;29.1;57.79;9196;2018-04-16 23:00:28:357
-2.789;-8.661;-1.247;-2.586;-9.114;-2.532;-0.203;0.453;1.285;-0.595;-1.847;0.706;-16.3;2.8;29.1;57.79;9206;2018-04-16 23:00:28:367
-2.789;-8.661;-1.247;-2.586;-9.114;-2.532;-0.203;0.453;1.285;-0.367;-2.937;0.711;-16.6;3.0;29.0;57.79;9216;2018-04-16 23:00:28:377
-1.919;-9.809;-0.668;-2.586;-9.114;-2.532;-0.203;0.453;1.285;0.065;-3.861;0.67;-16.7;3.0;29.0;57.79;9226;2018-04-16 23:00:28:387
-1.919;-9.809;-0.668;-2.874;-9.075;-2.355;1.054;-0.883;2.068;0.065;-3.861;0.67;-16.7;3.0;29.0;57.79;9236;2018-04-16 23:00:28:397
-1.414;-10.4;0.924;-3.007;-9.074;-2.19;1.593;-1.327;3.114;0.527;-4.535;0.527;-16.8;3.2;29.0;57.79;9247;2018-04-16 23:00:28:408
-1.498;-10.285;2.051;-3.253;-9.097;-1.684;1.756;-1.189;3.735;1.256;-4.712;0.31;-16.8;3.2;29.0;57.79;9256;2018-04-16 23:00:28:417
-1.498;-10.285;2.051;-3.253;-9.097;-1.684;1.756;-1.189;3.735;1.57;-4.465;0.378;-16.6;3.2;29.2;57.79;9267;2018-04-16 23:00:28:428
-0.608;-9.284;1.932;-3.422;-9.129;-1.06;3.111;0.15;2.927;1.851;-4.12;0.425;-16.6;3.2;29.2;57.79;9276;2018-04-16 23:00:28:437
-0.608;-9.284;1.932;-3.422;-9.129;-1.06;3.111;0.15;2.927;1.851;-4.12;0.425;-15.3;3.5;29.4;57.79;9287;2018-04-16 23:00:28:448
0.03;-8.356;1.72;-3.501;-9.151;-0.423;3.457;1.033;2.999;2.2;-3.387;0.253;-12.2;4.2;31.3;57.79;9296;2018-04-16 23:00:28:457
-0.091;-7.982;2.834;-3.501;-9.151;-0.423;3.457;1.033;2.999;2.611;-2.22;0.032;-10.1;5.8;30.6;57.79;9307;2018-04-16 23:00:28:468
-0.091;-7.982;2.834;-3.501;-9.151;-0.423;3.457;1.033;2.999;2.611;-2.22;0.032;-10.1;5.8;30.6;57.79;9317;2018-04-16 23:00:28:478
-0.147;-8.009;1.561;-3.483;-9.166;0.148;3.336;1.157;1.413;2.795;-0.11;-0.236;-7.2;7.5;31.9;57.79;9326;2018-04-16 23:00:28:487
-1.693;-8.953;-0.186;-3.38;-9.194;0.454;1.687;0.241;-0.64;2.294;1.794;-0.639;-7.2;7.5;31.9;57.79;9336;2018-04-16 23:00:28:497
-1.693;-8.953;-0.186;-3.38;-9.194;0.454;1.687;0.241;-0.64;1.873;2.562;-0.705;-6.6;9.8;30.2;57.79;9346;2018-04-16 23:00:28:507
-2.128;-9.157;-0.558;-3.324;-9.211;0.519;1.196;0.055;-1.077;1.491;3.059;-0.538;-6.6;9.8;30.2;57.79;9356;2018-04-16 23:00:28:517
-2.349;-9.167;-0.842;-3.324;-9.211;0.519;1.196;0.055;-1.077;1.491;3.059;-0.538;-7.6;11.1;31.2;57.79;9365;2018-04-16 23:00:28:526
