sep=;
acc_x;acc_y;acc_z;grav_x;grav_y;grav_z;lin_acc_x;lin_acc_y;lin_acc_z;gyro_x;gyro_y;gyro_z;mag_x;mag_y;mag_z;sound_lvl;time_ms;date_time
-2.789;2.392;8.041;-3.023;2.194;9.067;0.257;0.274;-0.795;0.028;-0.795;-0.691;-6.0;-30.7;6.0;50.74;14;2018-04-16 22:54:37:086
-3.083;2.533;8.578;-3.023;2.194;9.067;0.257;0.274;-0.795;0.028;-0.795;-0.691;-6.0;-30.7;6.0;50.74;24;2018-04-16 22:54:37:096
-3.083;2.533;8.578;-3.023;2.194;9.067;0.257;0.274;-0.795;-0.035;-0.82;-0.772;-6.0;-30.7;6.0;50.74;34;2018-04-16 22:54:37:106
-2.774;2.65;8.264;-2.905;2.145;9.118;0.131;0.506;-0.854;-0.024;-1.043;-0.856;-5.8;-30.9;5.8;50.74;44;2018-04-16 22:54:37:116
-3.437;2.321;8.623;-2.751;2.089;9.178;-1.421;-0.259;-0.295;-0.028;-1.081;-0.894;-5.4;-31.1;5.8;50.74;54;2018-04-16 22:54:37:126
-3.437;2.321;8.623;-2.751;2.089;9.178;-1.421;-0.259;-0.295;-0.028;-1.081;-0.894;-5.4;-31.1;5.8;50.74;63;2018-04-16 22:54:37:135
-4.721;1.047;9.049;-2.632;2.027;9.227;-1.515;-1.457;0.607;-0.075;-0.911;-0.827;-5.1;-31.3;5.7;50.74;73;2018-04-16 22:54:37:145
-4.721;1.047;9.049;-2.632;2.027;9.227;-1.515;-1.457;0.607;-0.075;-0.911;-0.827;-5.1;-31.3;5.7;50.74;83;2018-04-16 22:54:37:155
-4.04;0.795;10.11;-2.632;2.027;9.227;-1.515;-1.457;0.607;-0.093;-0.767;-0.541;-5.1;-31.3;5.7;50.74;94;2018-04-16 22:54:37:166
-3.757;1.396;9.912;-2.506;1.996;9.269;-1.251;-0.6;0.643;0.012;-0.781;-0.385;-4.7;-31.4;5.7;50.74;104;2018-04-16 22:54:37:176
-3.757;1.396;9.912;-2.506;1.996;9.269;-1.251;-0.6;0.643;0.012;-0.781;-0.385;-4.7;-31.4;5.7;50.74;113;2018-04-16 22:54:37:185
-3.251;1.858;10.161;-2.373;2.004;9.302;-0.878;-0.146;0.859;0.108;-0.712;-0.225;-4.2;-31.5;5.7;50.74;123;2018-04-16 22:54:37:195
-2.676;2.254;9.12;-2.286;2.007;9.323;-0.39;0.247;-0.203;0.066;-0.527;-0.213;-3.7;-31.5;5.9;50.74;133;2018-04-16 22:54:37:205
-2.676;2.254;9.12;-2.286;2.007;9.323;-0.39;0.247;-0.203;0.066;-0.527;-0.213;-3.7;-31.5;5.9;50.74;147;2018-04-16 22:54:37:219
-3.004;2.393;9.19;-2.169;2.009;9.35;-1.051;0.235;0.085;0.075;-0.707;-0.265;-3.3;-31.6;5.9;50.74;154;2018-04-16 22:54:37:226
-3.22;1.93;9.992;-2.169;2.009;9.35;-1.051;0.235;0.085;0.044;-0.765;-0.247;-3.3;-31.6;5.9;50.74;164;2018-04-16 22:54:37:236
-3.22;1.93;9.992;-2.033;2.012;9.38;-0.957;-0.321;1.203;0.078;-0.759;-0.197;-2.9;-31.6;6.0;50.74;173;2018-04-16 22:54:37:245
-2.79;1.609;10.943;-2.033;2.012;9.38;-0.957;-0.321;1.203;0.078;-0.759;-0.197;-2.9;-31.6;6.0;50.74;184;2018-04-16 22:54:37:256
-2.79;1.609;10.943;-1.902;2.057;9.398;-0.648;-0.375;1.46;0.192;-0.749;-0.14;-2.4;-31.6;6.0;50.74;194;2018-04-16 22:54:37:266
-2.43;1.724;10.455;-1.902;2.057;9.398;-0.648;-0.375;1.46;0.45;-0.671;-0.056;-2.4;-31.6;6.0;50.74;204;2018-04-16 22:54:37:276
-2.43;1.724;10.455;-1.902;2.057;9.398;-0.648;-0.375;1.46;0.45;-0.671;-0.056;-2.4;-31.6;6.0;50.74;214;2018-04-16 22:54:37:286
-2.34;1.803;9.821;-1.787;2.143;9.401;-0.553;-0.34;0.42;0.494;-0.589;-0.034;-2.0;-31.7;6.2;50.74;223;2018-04-16 22:54:37:295
-2.397;2.286;9.005;-1.693;2.224;9.4;-0.704;0.062;-0.395;0.401;-0.516;0.012;-1.6;-31.7;6.3;50.74;234;2018-04-16 22:54:37:306
-2.397;2.286;9.005;-1.693;2.224;9.4;-0.704;0.062;-0.395;0.401;-0.516;0.012;-1.6;-31.7;6.3;50.74;244;2018-04-16 22:54:37:316
-2.31;2.35;9.026;-1.604;2.282;9.402;-0.513;0.036;-0.219;0.308;-0.511;0.027;-1.3;-31.6;6.4;50.74;254;2018-04-16 22:54:37:326
-1.998;2.276;9.419;-1.604;2.282;9.402;-0.513;0.036;-0.219;0.26;-0.506;0.018;-1.3;-31.6;6.4;50.74;264;2018-04-16 22:54:37:336
-1.998;2.276;9.419;-1.513;2.33;9.405;-0.46;-0.076;0.243;0.264;-0.492;0.024;-0.9;-31.6;6.6;50.74;273;2018-04-16 22:54:37:345
-1.763;2.302;9.743;-1.513;2.33;9.405;-0.46;-0.076;0.243;0.274;-0.45;0.031;-0.9;-31.6;6.6;51.59;284;2018-04-16 22:54:37:356
-1.763;2.302;9.743;-1.513;2.33;9.405;-0.46;-0.076;0.243;0.274;-0.45;0.031;-0.9;-31.6;6.6;51.59;294;2018-04-16 22:54:37:366
-1.609;2.387;9.701;-1.434;2.382;9.404;-0.175;0.005;0.297;0.264;-0.374;0.021;-0.6;-31.6;6.8;51.59;304;2018-04-16 22:54:37:376
-1.609;2.387;9.701;-1.434;2.382;9.404;-0.175;0.005;0.297;0.264;-0.374;0.021;-0.6;-31.6;6.8;51.59;314;2018-04-16 22:54:37:386
-1.713;2.34;9.245;-1.397;2.418;9.401;-0.316;-0.077;-0.156;0.176;-0.178;-0.007;-0.4;-31.6;6.8;51.59;323;2018-04-16 22:54:37:395
-1.59;2.417;8.93;-1.382;2.43;9.4;-0.227;-0.005;-0.582;0.066;-0.081;0.006;-0.2;-31.6;6.8;51.59;334;2018-04-16 22:54:37:406
-1.567;2.431;8.746;-1.382;2.43;9.4;-0.227;-0.005;-0.582;0.001;-0.116;0.011;-0.2;-31.6;6.8;51.59;344;2018-04-16 22:54:37:416
-1.401;2.508;8.894;-1.352;2.431;9.404;-0.049;0.077;-0.509;-0.007;-0.195;0.022;0.0;-31.5;6.8;51.59;354;2018-04-16 22:54:37:426
-1.401;2.508;8.894;-1.352;2.431;9.404;-0.049;0.077;-0.509;-0.007;-0.195;0.022;0.0;-31.5;6.8;51.59;364;2018-04-16 22:54:37:436
-1.261;2.55;9.131;-1.301;2.433;9.411;0.043;0.08;-0.183;0.001;-0.272;0.009;0.2;-31.5;7.0;51.59;373;2018-04-16 22:54:37:445
-1.263;2.351;9.465;-1.301;2.433;9.411;0.043;0.08;-0.183;0.005;-0.298;-0.028;0.2;-31.5;7.0;51.59;383;2018-04-16 22:54:37:455
-1.263;2.351;9.465;-1.248;2.431;9.418;-0.061;-0.263;0.391;0.005;-0.283;-0.035;0.3;-31.4;7.2;51.59;394;2018-04-16 22:54:37:466
-1.487;2.033;9.85;-1.248;2.431;9.418;-0.061;-0.263;0.391;0.02;-0.21;-0.02;0.3;-31.4;7.2;51.59;404;2018-04-16 22:54:37:476
-1.487;2.033;9.85;-1.248;2.431;9.418;-0.061;-0.263;0.391;0.02;-0.21;-0.02;0.3;-31.4;7.2;51.59;414;2018-04-16 22:54:37:486
-1.598;1.968;9.643;-1.222;2.431;9.422;-0.376;-0.463;0.221;0.02;-0.086;0.021;0.4;-31.4;7.3;51.59;423;2018-04-16 22:54:37:495
-1.438;2.096;9.015;-1.233;2.425;9.422;-0.205;-0.329;-0.406;-0.043;0.092;0.115;0.4;-31.4;7.4;51.59;434;2018-04-16 22:54:37:506
-1.438;2.096;9.015;-1.233;2.425;9.422;-0.205;-0.329;-0.406;-0.043;0.092;0.115;0.4;-31.4;7.4;51.59;444;2018-04-16 22:54:37:516
-1.21;2.337;8.795;-1.228;2.418;9.424;0.048;-0.051;-0.67;-0.048;0.035;0.139;0.5;-31.3;7.5;51.59;454;2018-04-16 22:54:37:526
-1.13;2.358;8.678;-1.228;2.418;9.424;0.048;-0.051;-0.67;-0.086;-0.045;0.137;0.5;-31.3;7.5;51.59;464;2018-04-16 22:54:37:536
-1.13;2.358;8.678;-1.204;2.405;9.431;0.175;-0.067;-0.59;-0.098;-0.123;0.134;0.5;-31.4;7.6;51.59;473;2018-04-16 22:54:37:545
-1.075;2.291;8.995;-1.204;2.405;9.431;0.175;-0.067;-0.59;-0.086;-0.2;0.139;0.5;-31.4;7.6;51.59;484;2018-04-16 22:54:37:556
-1.075;2.291;8.995;-1.152;2.394;9.44;-0.098;-0.266;-0.195;-0.055;-0.274;0.151;0.6;-31.3;7.8;51.59;494;2018-04-16 22:54:37:566
-1.393;1.909;9.487;-1.152;2.394;9.44;-0.098;-0.266;-0.195;-0.002;-0.324;0.164;0.6;-31.3;7.8;51.59;504;2018-04-16 22:54:37:576
-1.393;1.909;9.487;-1.152;2.394;9.44;-0.098;-0.266;-0.195;-0.002;-0.324;0.164;0.6;-31.3;7.8;51.59;514;2018-04-16 22:54:37:586
-1.397;1.92;9.483;-1.085;2.4;9.446;-0.312;-0.48;0.037;0.07;-0.329;0.206;0.6;-31.3;7.9;51.59;524;2018-04-16 22:54:37:596
-1.397;1.92;9.483;-1.085;2.4;9.446;-0.312;-0.48;0.037;0.2;-0.371;0.303;0.6;-31.3;7.9;51.59;534;2018-04-16 22:54:37:606
-1.176;1.915;9.341;-1.001;2.44;9.445;-0.175;-0.524;-0.104;0.23;-0.367;0.337;0.6;-31.3;8.0;51.59;544;2018-04-16 22:54:37:616
-0.95;2.029;9.21;-0.926;2.488;9.441;0.083;-0.424;-0.327;0.236;-0.299;0.417;0.6;-31.3;8.1;51.59;553;2018-04-16 22:54:37:625
-0.582;2.251;8.868;-0.926;2.488;9.441;0.083;-0.424;-0.327;0.205;-0.269;0.396;0.6;-31.3;8.1;51.59;564;2018-04-16 22:54:37:636
-0.582;2.251;8.868;-0.846;2.533;9.436;0.522;-0.246;-0.745;0.206;-0.351;0.369;0.6;-31.3;8.0;51.59;574;2018-04-16 22:54:37:646
-0.582;2.251;8.868;-0.846;2.533;9.436;0.522;-0.246;-0.745;0.206;-0.351;0.369;0.6;-31.3;8.0;51.59;584;2018-04-16 22:54:37:656
-0.821;2.217;8.305;-0.795;2.555;9.434;-0.026;-0.338;-1.129;0.233;-0.501;0.353;0.6;-31.3;8.0;51.59;593;2018-04-16 22:54:37:665
-0.5;1.879;7.992;-0.633;2.611;9.432;0.133;-0.731;-1.44;0.292;-0.876;0.404;0.6;-31.3;8.0;51.57;604;2018-04-16 22:54:37:676
-0.5;1.879;7.992;-0.633;2.611;9.432;0.133;-0.731;-1.44;0.292;-0.876;0.404;0.6;-31.3;8.0;51.57;614;2018-04-16 22:54:37:686
-0.16;1.611;8.012;-0.5;2.656;9.427;0.34;-1.045;-1.415;0.417;-1.173;0.434;0.6;-31.3;8.0;51.57;624;2018-04-16 22:54:37:696
0.894;1.19;7.491;-0.159;2.798;9.398;1.054;-1.608;-1.906;0.842;-1.808;0.522;0.6;-31.2;8.0;51.57;634;2018-04-16 22:54:37:706
0.894;1.19;7.491;-0.159;2.798;9.398;1.054;-1.608;-1.906;0.842;-1.808;0.522;0.6;-31.2;8.0;51.57;643;2018-04-16 22:54:37:715
2.231;1.086;6.704;-0.159;2.798;9.398;1.054;-1.608;-1.906;1.152;-2.186;0.583;0.6;-31.2;8.0;51.57;653;2018-04-16 22:54:37:725
3.479;2.155;6.072;0.3;3.019;9.326;2.74;-1.592;-2.8;1.448;-2.748;0.454;0.5;-31.2;8.2;51.57;664;2018-04-16 22:54:37:736
3.479;2.155;6.072;0.879;3.305;9.191;2.6;-1.15;-3.119;1.448;-2.748;0.454;0.5;-31.2;8.2;51.57;673;2018-04-16 22:54:37:745
3.479;2.155;6.072;0.879;3.305;9.191;2.6;-1.15;-3.119;1.448;-2.748;0.454;0.5;-31.2;8.2;51.57;684;2018-04-16 22:54:37:756
2.146;1.245;3.557;1.215;3.463;9.094;0.931;-2.218;-5.537;1.913;-3.972;0.147;0.5;-31.2;8.2;51.57;694;2018-04-16 22:54:37:766
4.445;-0.87;0.905;2.08;3.799;8.798;2.365;-4.67;-7.893;1.945;-4.916;0.456;0.5;-31.1;8.5;51.57;704;2018-04-16 22:54:37:776
4.445;-0.87;0.905;2.08;3.799;8.798;2.365;-4.67;-7.893;1.945;-4.916;0.456;0.5;-31.1;8.5;51.57;714;2018-04-16 22:54:37:786
0.713;-1.174;4.076;2.62;3.945;8.587;-1.907;-5.12;-4.511;1.657;-5.212;0.611;0.6;-31.1;8.7;51.57;724;2018-04-16 22:54:37:796
1.237;-1.753;4.939;3.583;4.151;8.13;-4.083;-5.231;-3.196;1.754;-5.222;1.406;0.8;-30.9;9.0;51.57;733;2018-04-16 22:54:37:805
1.237;-1.753;4.939;3.583;4.151;8.13;-4.083;-5.231;-3.196;1.754;-5.222;1.406;0.8;-30.9;9.0;51.57;744;2018-04-16 22:54:37:816
1.708;-3.11;5.1;3.583;4.151;8.13;-4.083;-5.231;-3.196;1.919;-4.541;1.748;0.8;-30.9;9.0;51.57;754;2018-04-16 22:54:37:826
1.708;-3.11;5.1;4.441;4.308;7.608;-2.733;-7.418;-2.509;1.919;-4.541;1.748;1.0;-30.7;9.3;51.57;764;2018-04-16 22:54:37:836
1.708;-3.11;5.1;4.441;4.308;7.608;-2.733;-7.418;-2.509;1.919;-4.541;1.748;1.0;-30.7;9.3;51.57;776;2018-04-16 22:54:37:848
0.342;-2.999;1.664;4.781;4.346;7.377;-4.439;-7.344;-5.713;1.954;-3.701;2.257;1.1;-30.6;9.5;51.57;784;2018-04-16 22:54:37:856
0.528;-3.837;-3.053;6.076;4.089;6.522;-6.279;-6.466;-9.235;1.092;-4.364;3.951;1.5;-30.0;10.4;51.57;794;2018-04-16 22:54:37:866
0.528;-3.837;-3.053;6.076;4.089;6.522;-6.279;-6.466;-9.235;0.701;-4.728;4.503;1.5;-30.0;10.4;51.57;804;2018-04-16 22:54:37:876
1.737;-7.027;-2.294;6.076;4.089;6.522;-6.279;-6.466;-9.235;0.701;-4.728;4.503;1.5;-30.0;10.4;51.57;814;2018-04-16 22:54:37:886
1.95;-8.551;-1.355;7.044;3.507;5.852;-5.094;-12.058;-7.207;0.222;-4.886;5.091;1.9;-29.6;11.2;51.57;823;2018-04-16 22:54:37:895
1.95;-8.551;-1.355;7.044;3.507;5.852;-5.094;-12.058;-7.207;0.222;-4.886;5.091;1.6;-29.5;11.9;51.57;835;2018-04-16 22:54:37:907
2.106;-11.553;0.675;7.941;2.488;5.189;-6.129;-13.394;-4.918;-0.789;-4.384;6.493;1.6;-29.5;11.9;51.57;844;2018-04-16 22:54:37:916
2.106;-11.553;0.675;7.941;2.488;5.189;-6.129;-13.394;-4.918;-0.789;-4.384;6.493;1.6;-29.5;11.9;51.57;854;2018-04-16 22:54:37:926
4.061;-12.713;1.687;8.634;1.118;4.514;-3.12;-14.429;-2.487;-1.152;-4.292;7.614;1.3;-29.1;11.5;51.57;864;2018-04-16 22:54:37:936
9.754;-14.717;2.854;8.634;1.118;4.514;-3.12;-14.429;-2.487;-0.959;-4.749;8.639;1.3;-29.1;11.5;51.57;874;2018-04-16 22:54:37:946
15.921;-14.754;5.999;9.095;-0.549;3.626;2.905;-14.343;0.155;-0.305;-5.334;9.399;0.6;-29.2;12.1;51.57;884;2018-04-16 22:54:37:956
15.921;-14.754;5.999;9.149;-2.307;2.671;9.178;-11.963;5.131;-0.02;-4.904;9.291;-0.6;-28.8;12.2;51.57;894;2018-04-16 22:54:37:966
25.769;-10.511;11.586;9.149;-2.307;2.671;9.178;-11.963;5.131;-0.02;-4.904;9.291;-0.6;-28.8;12.2;51.57;904;2018-04-16 22:54:37:976
25.769;-10.511;11.586;9.149;-2.307;2.671;9.178;-11.963;5.131;0.348;-3.401;8.271;-0.6;-28.8;12.2;51.57;914;2018-04-16 22:54:37:986
27.973;-8.807;13.204;8.83;-3.708;2.109;19.142;-5.099;11.095;0.536;-3.005;7.736;-2.6;-27.5;12.5;51.13;924;2018-04-16 22:54:37:996
27.973;-8.807;13.204;8.83;-3.708;2.109;19.142;-5.099;11.095;1.349;-1.695;6.029;-2.6;-27.5;12.5;51.13;934;2018-04-16 22:54:38:006
30.057;-6.175;11.431;8.395;-4.685;1.935;21.662;-1.49;9.497;1.951;-0.744;4.419;-5.9;-25.5;12.9;51.13;944;2018-04-16 22:54:38:016
32.908;-2.794;10.465;8.019;-5.248;2.081;24.89;2.454;8.384;2.055;-0.021;3.395;-8.6;-24.1;14.6;51.13;954;2018-04-16 22:54:38:026
32.908;-2.794;10.465;8.019;-5.248;2.081;24.89;2.454;8.384;2.055;-0.021;3.395;-8.6;-24.1;14.6;51.13;965;2018-04-16 22:54:38:037
35.182;1.308;7.047;7.746;-5.474;2.492;27.436;6.782;4.555;1.46;1.618;1.945;-10.5;-22.1;15.0;51.13;974;2018-04-16 22:54:38:046
35.182;1.308;7.047;7.746;-5.474;2.492;27.436;6.782;4.555;1.46;1.618;1.945;-10.5;-22.1;15.0;51.13;984;2018-04-16 22:54:38:056
34.267;1.122;1.915;7.64;-5.486;2.776;26.627;6.607;-0.86;0.114;3.968;0.217;-11.8;-21.2;15.3;51.13;994;2018-04-16 22:54:38:066
23.762;-2.576;3.381;7.606;-5.202;3.355;16.156;2.626;0.026;-0.849;4.589;-1.796;-13.6;-20.9;12.5;51.13;1003;2018-04-16 22:54:38:075
9.665;-4.755;8.395;8.135;-3.805;3.938;1.622;-0.5;6.972;0.804;-0.195;-1.324;-14.1;-23.2;11.1;51.13;1080;2018-04-16 22:54:38:152
9.665;-4.755;8.395;8.135;-3.805;3.938;1.622;-0.5;6.972;0.804;-0.195;-1.324;-14.1;-23.2;11.1;51.13;1080;2018-04-16 22:54:38:152
9.665;-4.755;8.395;8.135;-3.805;3.938;1.622;-0.5;6.972;0.804;-0.195;-1.324;-14.1;-23.2;11.1;51.13;1080;2018-04-16 22:54:38:152
9.665;-4.755;8.395;8.135;-3.805;3.938;1.622;-0.5;6.972;0.804;-0.195;-1.324;-14.1;-23.2;11.1;51.13;1081;2018-04-16 22:54:38:153
9.665;-4.755;8.395;8.135;-3.805;3.938;1.622;-0.5;6.972;0.804;-0.195;-1.324;-14.1;-23.2;11.1;51.13;1081;2018-04-16 22:54:38:153
9.665;-4.755;8.395;8.135;-3.805;3.938;1.622;-0.5;6.972;0.804;-0.195;-1.324;-14.1;-23.2;11.1;51.13;1081;2018-04-16 22:54:38:153
9.665;-4.755;8.395;8.135;-3.805;3.938;1.622;-0.5;6.972;0.804;-0.195;-1.324;-14.1;-23.2;11.1;51.13;1081;2018-04-16 22:54:38:153
9.665;-4.755;8.395;8.135;-3.805;3.938;1.622;-0.5;6.972;0.804;-0.195;-1.324;-14.1;-23.2;11.1;51.13;1084;2018-04-16 22:54:38:156
10.039;-2.122;9.64;8.183;-3.649;3.988;1.575;-0.656;6.923;2.491;-0.435;-1.001;-13.1;-24.2;11.9;51.13;1094;2018-04-16 22:54:38:166
10.039;-2.122;9.64;8.183;-3.649;3.988;1.575;-0.656;6.923;2.491;-0.435;-1.001;-13.1;-24.2;11.9;51.13;1104;2018-04-16 22:54:38:176
5.996;0.571;-3.367;8.414;-3.19;3.899;-2.417;3.761;-7.267;3.665;-2.847;-0.985;-12.6;-22.7;13.2;51.13;1114;2018-04-16 22:54:38:186
5.752;1.452;-1.66;8.578;-2.988;3.696;-2.826;4.44;-5.356;3.133;-3.335;-0.778;-12.8;-23.1;12.4;51.13;1123;2018-04-16 22:54:38:195
5.752;1.452;-1.66;8.578;-2.988;3.696;-2.826;4.44;-5.356;3.133;-3.335;-0.778;-12.8;-23.1;12.4;51.13;1134;2018-04-16 22:54:38:206
5.854;2.154;2.416;8.819;-2.689;3.341;-2.965;4.843;-0.925;2.281;-2.665;-0.716;-11.9;-22.2;15.1;51.13;1144;2018-04-16 22:54:38:216
4.809;2.276;2.647;9.008;-2.434;3.016;-4.199;4.71;-0.369;2.137;-2.413;-0.67;-10.1;-20.9;16.6;51.13;1154;2018-04-16 22:54:38:226
4.809;2.276;2.647;9.008;-2.434;3.016;-4.199;4.71;-0.369;2.149;-2.517;-0.585;-10.1;-20.9;16.6;51.13;1165;2018-04-16 22:54:38:237
2.094;-0.397;-4.489;9.18;-2.23;2.632;-7.086;1.833;-7.121;1.837;-2.689;-0.436;-10.5;-21.1;16.5;51.13;1174;2018-04-16 22:54:38:246
2.094;-0.397;-4.489;9.18;-2.23;2.632;-7.086;1.833;-7.121;1.179;-2.711;-0.077;-10.5;-21.1;16.5;51.13;1184;2018-04-16 22:54:38:256
2.155;-1.762;-2.205;9.303;-2.208;2.18;-6.165;0.25;-2.319;0.663;-2.516;0.268;-9.5;-20.0;18.4;51.13;1193;2018-04-16 22:54:38:265
2.155;-1.762;-2.205;9.303;-2.208;2.18;-6.165;0.25;-2.319;0.663;-2.516;0.268;-9.5;-20.0;18.4;51.13;1204;2018-04-16 22:54:38:276
4.963;-2.417;1.234;9.337;-2.232;2.001;-6.2;0.273;-2.14;0.595;-2.364;0.426;-9.1;-20.2;17.4;51.13;1213;2018-04-16 22:54:38:285
7.135;-1.697;-0.578;9.337;-2.232;2.001;-6.2;0.273;-2.14;0.898;-2.381;0.321;-9.1;-20.2;17.4;51.13;1223;2018-04-16 22:54:38:295
7.135;-1.697;-0.578;9.409;-2.259;1.593;-1.671;1.797;-3.377;0.898;-2.381;0.321;-8.1;-20.0;19.9;51.13;1233;2018-04-16 22:54:38:305
8.625;2.711;-2.704;9.457;-2.216;1.35;-0.832;4.927;-4.055;0.955;-2.431;-0.094;-7.5;-19.9;19.3;49.95;1244;2018-04-16 22:54:38:316
11.651;4.901;1.14;9.539;-2.085;0.907;2.112;6.985;0.232;0.826;-2.408;-0.555;-5.9;-19.4;21.4;49.95;1254;2018-04-16 22:54:38:326
11.651;4.901;1.14;9.539;-2.085;0.907;2.112;6.985;0.232;0.853;-2.696;-1.166;-5.9;-19.4;21.4;49.95;1264;2018-04-16 22:54:38:336
9.869;-1.696;1.317;9.623;-1.824;0.493;-1.184;-0.085;1.938;0.561;-2.118;-1.478;-3.6;-19.2;22.8;49.95;1274;2018-04-16 22:54:38:346
8.124;-1.688;4.253;9.623;-1.824;0.493;-1.184;-0.085;1.938;0.176;-1.349;-1.189;-3.6;-19.2;22.8;49.95;1283;2018-04-16 22:54:38:355
8.124;-1.688;4.253;9.666;-1.623;0.327;-0.682;-0.038;4.161;0.024;-0.718;-0.903;-1.8;-18.1;23.1;49.95;1294;2018-04-16 22:54:38:366
8.124;-1.688;4.253;9.666;-1.623;0.327;-0.682;-0.038;4.161;0.024;-0.718;-0.903;-1.8;-18.1;23.1;49.95;1304;2018-04-16 22:54:38:376
9.153;-0.979;3.051;9.677;-1.559;0.304;-0.524;0.58;2.747;0.059;-0.442;-0.72;-1.6;-17.6;23.2;49.95;1314;2018-04-16 22:54:38:386
9.153;-0.979;3.051;9.677;-1.559;0.304;-0.524;0.58;2.747;0.059;-0.442;-0.72;-1.6;-17.6;23.2;49.95;1323;2018-04-16 22:54:38:395
8.715;-1.097;0.496;9.688;-1.496;0.257;-0.973;0.4;0.238;0.159;-0.454;-0.563;-1.7;-18.5;23.9;49.95;1334;2018-04-16 22:54:38:406
8.715;-1.097;0.496;9.688;-1.496;0.257;-0.973;0.4;0.238;0.159;-0.454;-0.563;-1.7;-18.5;23.9;49.95;1344;2018-04-16 22:54:38:416
8.715;-1.097;0.496;9.688;-1.496;0.257;-0.973;0.4;0.238;0.159;-0.454;-0.563;-1.7;-18.5;23.9;49.95;1354;2018-04-16 22:54:38:426
8.715;-1.097;0.496;9.688;-1.496;0.257;-0.973;0.4;0.238;0.159;-0.454;-0.563;-1.7;-18.5;23.9;49.95;1364;2018-04-16 22:54:38:436
8.715;-1.097;0.496;9.688;-1.496;0.257;-0.973;0.4;0.238;0.159;-0.454;-0.563;-1.7;-18.5;23.9;49.95;1374;2018-04-16 22:54:38:446
8.715;-1.097;0.496;9.688;-1.496;0.257;-0.973;0.4;0.238;0.159;-0.454;-0.563;-1.7;-18.5;23.9;49.95;1383;2018-04-16 22:54:38:455
8.715;-1.097;0.496;9.688;-1.496;0.257;-0.973;0.4;0.238;0.159;-0.454;-0.563;-1.7;-18.5;23.9;49.95;1394;2018-04-16 22:54:38:466
8.715;-1.097;0.496;9.688;-1.496;0.257;-0.973;0.4;0.238;0.159;-0.454;-0.563;-1.7;-18.5;23.9;49.95;1404;2018-04-16 22:54:38:476
8.715;-1.097;0.496;9.688;-1.496;0.257;-0.973;0.4;0.238;0.159;-0.454;-0.563;-1.7;-18.5;23.9;49.95;1414;2018-04-16 22:54:38:486
8.715;-1.097;0.496;9.688;-1.496;0.257;-0.973;0.4;0.238;0.159;-0.454;-0.563;-1.7;-18.5;23.9;49.95;1424;2018-04-16 22:54:38:496
8.715;-1.097;0.496;9.688;-1.496;0.257;-0.973;0.4;0.238;0.159;-0.454;-0.563;-1.7;-18.5;23.9;49.95;1434;2018-04-16 22:54:38:506
8.715;-1.097;0.496;9.688;-1.496;0.257;-0.973;0.4;0.238;0.159;-0.454;-0.563;-1.7;-18.5;23.9;49.95;1444;2018-04-16 22:54:38:516
8.715;-1.097;0.496;9.688;-1.496;0.257;-0.973;0.4;0.238;0.159;-0.454;-0.563;-1.7;-18.5;23.9;49.95;1454;2018-04-16 22:54:38:526
8.715;-1.097;0.496;9.688;-1.496;0.257;-0.973;0.4;0.238;0.159;-0.454;-0.563;-1.7;-18.5;23.9;49.95;1464;2018-04-16 22:54:38:536
8.715;-1.097;0.496;9.688;-1.496;0.257;-0.973;0.4;0.238;0.159;-0.454;-0.563;-1.7;-18.5;23.9;49.95;1473;2018-04-16 22:54:38:545
8.715;-1.097;0.496;9.688;-1.496;0.257;-0.973;0.4;0.238;0.159;-0.454;-0.563;-1.7;-18.5;23.9;49.95;1484;2018-04-16 22:54:38:556
8.715;-1.097;0.496;9.688;-1.496;0.257;-0.973;0.4;0.238;0.159;-0.454;-0.563;-1.7;-18.5;23.9;49.95;1494;2018-04-16 22:54:38:566
8.715;-1.097;0.496;9.688;-1.496;0.257;-0.973;0.4;0.238;0.159;-0.454;-0.563;-1.7;-18.5;23.9;49.95;1504;2018-04-16 22:54:38:576
7.288;-1.707;-0.767;9.7;-1.438;0.114;-2.412;-0.27;-0.881;-0.024;-0.828;-0.236;-1.5;-18.7;23.8;49.95;1514;2018-04-16 22:54:38:586
6.229;-6.385;1.249;9.259;-3.131;-0.796;-3.031;-3.254;2.045;0.784;-0.48;1.064;-0.5;-18.9;23.1;49.95;1524;2018-04-16 22:54:38:596
6.513;-6.517;0.36;9.113;-3.547;-0.732;-2.6;-2.97;1.092;0.246;0.277;2.363;-0.2;-18.8;23.0;49.95;1534;2018-04-16 22:54:38:606
6.513;-6.517;0.36;9.113;-3.547;-0.732;-2.6;-2.97;1.092;0.088;0.233;2.952;-0.2;-18.8;23.0;49.95;1544;2018-04-16 22:54:38:616
7.764;-4.854;0.912;9.113;-3.547;-0.732;-2.6;-2.97;1.092;0.088;0.233;2.952;-0.2;-18.8;23.0;49.95;1554;2018-04-16 22:54:38:626
14.966;-0.157;-1.416;8.863;-4.145;-0.655;-1.099;-0.709;1.567;0.93;-0.092;3.51;0.0;-18.8;23.0;49.95;1563;2018-04-16 22:54:38:635
14.966;-0.157;-1.416;8.574;-4.713;-0.664;8.413;5.159;-1.691;0.93;-0.092;3.51;0.0;-18.8;22.8;48.77;1573;2018-04-16 22:54:38:645
12.559;-2.987;-2.504;8.574;-4.713;-0.664;8.413;5.159;-1.691;1.025;-1.174;2.379;0.0;-18.8;22.8;48.77;1584;2018-04-16 22:54:38:656
12.559;-2.987;-2.504;8.334;-5.115;-0.734;1.457;0.967;0.025;1.071;-0.897;2.22;-0.1;-18.8;22.8;48.77;1594;2018-04-16 22:54:38:666
8.021;-4.19;0.035;8.334;-5.115;-0.734;1.457;0.967;0.025;1.071;-0.897;2.22;-0.1;-18.8;22.8;48.77;1604;2018-04-16 22:54:38:676
8.021;-4.19;0.035;8.12;-5.459;-0.66;-1.013;1.842;-0.206;1.348;-0.351;2.057;-0.4;-18.8;22.7;48.77;1613;2018-04-16 22:54:38:685
6.506;-3.248;-0.599;8.12;-5.459;-0.66;-1.013;1.842;-0.206;1.158;-0.573;1.2;-0.4;-18.8;22.7;48.77;1624;2018-04-16 22:54:38:696
6.506;-3.248;-0.599;8.005;-5.627;-0.654;-1.36;2.081;1.574;0.825;-0.688;0.764;-0.7;-18.7;22.7;48.77;1634;2018-04-16 22:54:38:706
6.877;-2.983;1.311;8.005;-5.627;-0.654;-1.36;2.081;1.574;0.825;-0.688;0.764;-0.7;-18.7;22.7;48.77;1644;2018-04-16 22:54:38:716
6.877;-2.983;1.311;7.92;-5.75;-0.616;-0.834;4.078;1.979;0.519;-0.167;0.733;-1.0;-18.6;22.5;48.77;1653;2018-04-16 22:54:38:725
7.337;-0.241;0.967;7.92;-5.75;-0.616;-0.834;4.078;1.979;0.203;0.683;0.765;-1.0;-18.6;22.5;48.77;1664;2018-04-16 22:54:38:736
7.337;-0.241;0.967;7.845;-5.866;-0.465;-0.726;6.885;0.551;-0.001;1.078;0.72;-1.3;-18.4;22.6;48.77;1674;2018-04-16 22:54:38:746
5.893;1.492;-0.88;7.845;-5.866;-0.465;-0.726;6.885;0.551;-0.001;1.078;0.72;-1.3;-18.4;22.6;48.77;1684;2018-04-16 22:54:38:756
5.893;1.492;-0.88;7.845;-5.866;-0.465;-0.726;6.885;0.551;-0.329;1.299;0.683;-1.3;-18.4;22.6;48.77;1694;2018-04-16 22:54:38:766
5.064;0.897;-2.11;7.772;-5.972;-0.308;-2.708;6.869;-1.803;-0.804;1.141;0.869;-1.8;-18.1;22.5;48.77;1703;2018-04-16 22:54:38:775
4.278;-4.146;-0.705;7.645;-6.137;-0.262;-3.366;1.991;-0.443;-1.123;1.013;1.315;-2.8;-17.7;22.2;48.77;1714;2018-04-16 22:54:38:786
4.278;-4.146;-0.705;7.645;-6.137;-0.262;-3.366;1.991;-0.443;-1.359;0.789;2.246;-2.8;-17.7;22.2;48.77;1725;2018-04-16 22:54:38:797
3.588;-9.293;-1.126;7.271;-6.57;-0.363;-3.683;-2.723;-0.763;-1.445;0.291;3.536;-3.5;-17.3;23.2;48.77;1733;2018-04-16 22:54:38:805
2.533;-11.826;-1.776;7.271;-6.57;-0.363;-3.683;-2.723;-0.763;-1.445;0.291;3.536;-3.5;-17.3;23.2;48.77;1743;2018-04-16 22:54:38:815
2.533;-11.826;-1.776;6.449;-7.354;-0.7;-4.204;-4.631;-0.483;-1.274;-1.178;5.748;-4.0;-17.0;23.0;48.77;1754;2018-04-16 22:54:38:826
2.577;-10.399;4.469;6.449;-7.354;-0.7;-4.204;-4.631;-0.483;-0.583;-2.259;7.677;-4.0;-17.0;23.0;48.77;1764;2018-04-16 22:54:38:836
2.577;-10.399;4.469;5.162;-8.292;-0.875;-3.16;-0.474;3.472;0.652;-1.266;8.211;-4.6;-16.4;22.8;48.77;1774;2018-04-16 22:54:38:846
2.132;-6.273;-0.187;5.162;-8.292;-0.875;-3.16;-0.474;3.472;1.804;-0.478;8.336;-4.6;-16.4;22.8;48.77;1784;2018-04-16 22:54:38:856
2.132;-6.273;-0.187;3.709;-9.061;-0.558;-1.438;3.479;0.102;2.26;-0.435;8.286;-5.6;-15.6;23.6;48.77;1794;2018-04-16 22:54:38:866
2.74;-4.598;-1.402;3.709;-9.061;-0.558;-1.438;3.479;0.102;2.26;-0.435;8.286;-5.6;-15.6;23.6;48.77;1804;2018-04-16 22:54:38:876
2.74;-4.598;-1.402;2.161;-9.565;-0.123;0.464;6.054;-2.574;2.489;-0.325;8.293;-7.4;-14.0;23.7;48.77;1814;2018-04-16 22:54:38:886
2.616;-1.98;-4.843;2.161;-9.565;-0.123;0.464;6.054;-2.574;1.885;-1.268;7.663;-7.4;-14.0;23.7;48.77;1824;2018-04-16 22:54:38:896
2.616;-1.98;-4.843;0.733;-9.778;0.141;1.239;7.911;-3.46;1.337;-2.246;7.103;-8.8;-9.6;25.2;48.77;1833;2018-04-16 22:54:38:905
2.046;-1.025;-3.293;0.733;-9.778;0.141;1.239;7.911;-3.46;1.337;-2.246;7.103;-8.8;-9.6;25.2;48.77;1844;2018-04-16 22:54:38:916
2.046;-1.025;-3.293;-0.463;-9.793;0.243;2.312;8.962;-2.982;0.82;-3.064;6.539;-9.5;-6.8;22.8;48.77;1854;2018-04-16 22:54:38:926
1.571;-0.918;-2.975;-0.463;-9.793;0.243;2.312;8.962;-2.982;-0.132;-4.743;5.244;-9.5;-6.8;22.8;48.77;1864;2018-04-16 22:54:38:936
1.571;-0.918;-2.975;-1.403;-9.702;0.268;2.745;8.451;-2.362;-0.557;-5.411;4.749;-7.6;-3.9;25.9;48.77;1874;2018-04-16 22:54:38:946
1.25;-1.885;-0.059;-1.403;-9.702;0.268;2.745;8.451;-2.362;-0.557;-5.411;4.749;-7.6;-3.9;25.9;57.9;1883;2018-04-16 22:54:38:955
1.25;-1.885;-0.059;-2.229;-9.546;0.291;-5.309;-13.995;2.961;-0.949;-5.786;4.266;-6.5;-4.3;26.6;57.9;1894;2018-04-16 22:54:38:966
-18.168;-39.185;6.195;-2.229;-9.546;0.291;-5.309;-13.995;2.961;-1.205;-5.326;6.562;-6.5;-4.3;26.6;57.9;1903;2018-04-16 22:54:38:975
-18.168;-39.185;6.195;-3.701;-9.076;0.325;-8.846;-30.109;10.261;-1.46;-4.651;9.352;-3.4;-2.4;27.6;57.9;1914;2018-04-16 22:54:38:986
5.438;-25.423;6.223;-3.701;-9.076;0.325;-8.846;-30.109;10.261;-1.46;-4.651;9.352;-3.4;-2.4;27.6;57.9;1924;2018-04-16 22:54:38:996
5.438;-25.423;6.223;-4.095;-8.91;-0.036;-7.525;-20.758;17.174;-3.305;-2.423;2.294;-1.0;-2.1;29.4;57.9;1933;2018-04-16 22:54:39:005
-13.513;-22.746;11.021;-4.095;-8.91;-0.036;-7.525;-20.758;17.174;-2.629;0.357;-2.496;-1.0;-2.1;29.4;57.9;1944;2018-04-16 22:54:39:016
-13.513;-22.746;11.021;-3.701;-9.067;-0.511;-5.321;-5.033;3.821;-1.826;1.664;-1.868;-0.4;-4.2;27.4;57.9;1953;2018-04-16 22:54:39:025
-4.821;-6.011;-4.934;-3.701;-9.067;-0.511;-5.321;-5.033;3.821;-1.826;1.664;-1.868;-0.4;-4.2;27.4;57.9;1964;2018-04-16 22:54:39:036
-4.821;-6.011;-4.934;-3.533;-9.127;-0.624;1.337;7.81;-4.966;-0.936;0.864;-0.949;-0.4;-5.6;29.7;57.9;1974;2018-04-16 22:54:39:046
-1.794;-1.124;-1.288;-3.533;-9.127;-0.624;1.337;7.81;-4.966;2.22;-5.046;-0.498;-0.4;-5.6;29.7;57.9;1983;2018-04-16 22:54:39:055
-1.794;-1.124;-1.288;-3.466;-9.17;0.243;0.917;6.568;0.947;2.916;-6.033;-0.481;-0.1;-4.7;27.0;57.9;1994;2018-04-16 22:54:39:066
-3.618;-4.256;1.532;-3.466;-9.17;0.243;0.917;6.568;0.947;2.916;-6.033;-0.481;-0.1;-4.7;27.0;57.9;2003;2018-04-16 22:54:39:075
-3.618;-4.256;1.532;-3.316;-9.164;1.096;-2.098;2.539;-1.054;2.778;-5.194;-0.465;3.4;-3.4;28.8;57.9;2014;2018-04-16 22:54:39:086
-7.254;-9.618;-4.605;-3.316;-9.164;1.096;-2.098;2.539;-1.054;2.357;-3.841;-0.266;3.4;-3.4;28.8;57.9;2023;2018-04-16 22:54:39:095
-7.254;-9.618;-4.605;-3.207;-9.124;1.625;-3.68;-1.503;-7.331;1.526;-1.891;-0.126;5.2;-1.9;26.4;57.9;2034;2018-04-16 22:54:39:106
-6.211;-10.19;-3.46;-3.207;-9.124;1.625;-3.68;-1.503;-7.331;1.526;-1.891;-0.126;5.2;-1.9;26.4;57.9;2044;2018-04-16 22:54:39:116
-5.247;-9.433;-0.976;-3.255;-9.135;1.459;-1.991;-0.299;-2.435;-0.351;1.676;-0.027;6.2;-0.7;26.7;57.9;2054;2018-04-16 22:54:39:126
-5.247;-9.433;-0.976;-3.255;-9.135;1.459;-1.991;-0.299;-2.435;-1.178;3.317;0.156;6.2;-0.7;26.7;57.9;2064;2018-04-16 22:54:39:136
-4.126;-9.027;0.615;-3.381;-9.151;0.998;-0.745;0.124;-0.383;-1.29;3.613;0.215;5.4;-0.9;30.0;57.9;2074;2018-04-16 22:54:39:146
-4.126;-9.027;0.615;-3.381;-9.151;0.998;-0.745;0.124;-0.383;-1.295;3.627;0.184;5.4;-0.9;30.0;57.9;2084;2018-04-16 22:54:39:156
-4.122;-9.33;0.628;-3.471;-9.157;0.527;-0.52;-0.172;-0.06;-1.174;3.396;0.175;4.1;-1.4;28.7;57.9;2094;2018-04-16 22:54:39:166
-3.686;-9.243;0.773;-3.471;-9.157;0.527;-0.52;-0.172;-0.06;-1.174;3.396;0.175;4.1;-1.4;28.7;57.9;2104;2018-04-16 22:54:39:176
-3.686;-9.243;0.773;-3.522;-9.148;0.276;-0.039;0.116;0.892;-0.684;2.375;0.193;2.6;-1.6;29.4;57.9;2114;2018-04-16 22:54:39:186
-3.809;-9.13;1.166;-3.522;-9.148;0.276;-0.039;0.116;0.892;-0.197;1.225;0.13;2.6;-1.6;29.4;57.9;2124;2018-04-16 22:54:39:196
-3.809;-9.13;1.166;-3.553;-9.138;0.184;-0.21;0.013;0.875;-0.097;0.861;0.143;1.0;-2.8;28.6;57.9;2134;2018-04-16 22:54:39:206
-3.4;-9.081;0.682;-3.553;-9.138;0.184;-0.21;0.013;0.875;-0.097;0.861;0.143;1.0;-2.8;28.6;57.9;2144;2018-04-16 22:54:39:216
-3.4;-9.081;0.682;-3.583;-9.127;0.158;0.284;0.01;0.426;-0.02;0.392;0.166;1.5;-2.3;28.4;57.9;2154;2018-04-16 22:54:39:226
-3.11;-9.234;0.388;-3.583;-9.127;0.158;0.284;0.01;0.426;-0.011;0.013;0.178;1.5;-2.3;28.4;57.9;2164;2018-04-16 22:54:39:236
-3.11;-9.234;0.388;-3.611;-9.116;0.162;0.681;-0.17;0.182;-0.045;-0.182;0.189;1.6;-2.2;28.7;57.9;2174;2018-04-16 22:54:39:246
-2.775;-9.312;0.379;-3.611;-9.116;0.162;0.681;-0.17;0.182;-0.094;-0.338;0.186;1.6;-2.2;28.7;57.9;2184;2018-04-16 22:54:39:256
-2.775;-9.312;0.379;-3.634;-9.107;0.172;0.905;-0.206;0.232;-0.142;-0.445;0.177;2.3;-2.2;28.7;57.9;2194;2018-04-16 22:54:39:266
-2.674;-9.301;0.672;-3.634;-9.107;0.172;0.905;-0.206;0.232;-0.18;-0.501;0.17;2.3;-2.2;28.7;66.27;2204;2018-04-16 22:54:39:276
-2.674;-9.301;0.672;-3.653;-9.099;0.18;1.028;-0.161;0.626;-0.213;-0.5;0.155;2.8;-2.3;28.9;66.27;2214;2018-04-16 22:54:39:286
-2.647;-9.239;0.948;-3.653;-9.099;0.18;1.028;-0.161;0.626;-0.227;-0.452;0.132;2.8;-2.3;28.9;66.27;2224;2018-04-16 22:54:39:296
-2.647;-9.239;0.948;-3.664;-9.094;0.178;1.001;-0.128;0.874;-0.226;-0.378;0.105;3.0;-2.5;29.0;66.27;2234;2018-04-16 22:54:39:306
-2.678;-9.22;1.165;-3.664;-9.094;0.178;1.001;-0.128;0.874;-0.226;-0.378;0.105;3.0;-2.5;29.0;66.27;2243;2018-04-16 22:54:39:315
-2.678;-9.22;1.165;-3.667;-9.094;0.171;0.933;-0.098;1.0;-0.193;-0.227;0.062;3.1;-2.5;29.1;66.27;2254;2018-04-16 22:54:39:326
-2.799;-9.193;1.119;-3.667;-9.094;0.171;0.933;-0.098;1.0;-0.11;-0.065;0.017;3.1;-2.5;29.1;66.27;2264;2018-04-16 22:54:39:336
-2.799;-9.193;1.119;-3.661;-9.096;0.168;0.772;-0.1;0.802;-0.043;0.017;-0.009;3.2;-2.4;29.1;66.27;2273;2018-04-16 22:54:39:345
-2.99;-9.203;0.824;-3.661;-9.096;0.168;0.772;-0.1;0.802;-0.043;0.017;-0.009;3.2;-2.4;29.1;66.27;2284;2018-04-16 22:54:39:356
-2.99;-9.203;0.824;-3.661;-9.096;0.168;0.772;-0.1;0.802;0.053;0.077;-0.038;3.2;-2.4;29.1;66.27;2293;2018-04-16 22:54:39:365
-3.154;-9.161;0.472;-3.636;-9.105;0.194;0.556;-0.082;0.461;0.142;0.07;-0.061;3.3;-2.3;29.2;66.27;2303;2018-04-16 22:54:39:375
-3.154;-9.161;0.472;-3.609;-9.116;0.228;0.373;0.002;-0.04;0.188;0.022;-0.068;3.1;-2.3;29.2;66.27;2313;2018-04-16 22:54:39:385
-3.381;-9.093;-0.113;-3.609;-9.116;0.228;0.373;0.002;-0.04;0.188;0.022;-0.068;3.1;-2.3;29.2;66.27;2324;2018-04-16 22:54:39:396
-3.381;-9.093;-0.113;-3.609;-9.116;0.228;0.373;0.002;-0.04;0.34;-0.26;-0.084;3.1;-2.3;29.2;66.27;2333;2018-04-16 22:54:39:405
-3.62;-9.16;-0.038;-3.588;-9.121;0.306;0.014;-0.056;-0.493;0.611;-0.759;-0.084;2.9;-2.4;29.5;66.27;2343;2018-04-16 22:54:39:415
-3.62;-9.16;-0.038;-3.567;-9.122;0.481;-0.024;0.015;-0.483;0.681;-0.913;-0.073;2.5;-2.6;29.5;66.27;2353;2018-04-16 22:54:39:425
-3.658;-9.147;-0.138;-3.567;-9.122;0.481;-0.024;0.015;-0.483;0.681;-0.913;-0.073;2.5;-2.6;29.5;66.27;2363;2018-04-16 22:54:39:435
-3.658;-9.147;-0.138;-3.544;-9.121;0.651;-0.142;-0.046;-1.011;0.644;-0.889;-0.077;2.2;-2.7;29.5;66.27;2374;2018-04-16 22:54:39:446
-3.68;-9.164;-0.468;-3.544;-9.121;0.651;-0.142;-0.046;-1.011;0.545;-0.782;-0.059;2.2;-2.7;29.5;66.27;2383;2018-04-16 22:54:39:455
-3.68;-9.164;-0.468;-3.525;-9.118;0.774;-0.187;-0.049;-1.203;0.414;-0.58;-0.054;2.1;-2.8;29.6;66.27;2394;2018-04-16 22:54:39:466
-3.776;-9.164;-0.29;-3.525;-9.118;0.774;-0.187;-0.049;-1.203;0.288;-0.352;-0.049;2.1;-2.8;29.6;66.27;2403;2018-04-16 22:54:39:475
-3.776;-9.164;-0.29;-3.516;-9.118;0.816;-0.297;-0.034;-0.985;0.138;-0.062;-0.039;2.1;-2.7;29.7;66.27;2413;2018-04-16 22:54:39:485
-3.812;-9.116;-0.122;-3.516;-9.118;0.816;-0.297;-0.034;-0.985;-0.022;0.238;-0.029;2.1;-2.7;29.7;66.27;2424;2018-04-16 22:54:39:496
-3.812;-9.116;-0.122;-3.519;-9.122;0.763;-0.318;0.038;-0.84;-0.161;0.481;-0.026;2.3;-2.7;29.7;66.27;2434;2018-04-16 22:54:39:506
-3.876;-9.032;0.004;-3.519;-9.122;0.763;-0.318;0.038;-0.84;-0.161;0.481;-0.026;2.3;-2.7;29.7;66.27;2444;2018-04-16 22:54:39:516
-3.876;-9.032;0.004;-3.529;-9.126;0.66;-0.331;0.113;-0.527;-0.285;0.66;-0.012;2.4;-2.6;29.8;66.27;2453;2018-04-16 22:54:39:525
-3.78;-9.0;0.334;-3.529;-9.126;0.66;-0.331;0.113;-0.527;-0.299;0.606;0.002;2.4;-2.6;29.8;66.27;2463;2018-04-16 22:54:39:535
-3.78;-9.0;0.334;-3.539;-9.128;0.569;-0.19;0.043;-0.038;-0.269;0.462;0.011;2.6;-2.6;29.8;66.27;2473;2018-04-16 22:54:39:545
-3.722;-9.142;0.698;-3.539;-9.128;0.569;-0.19;0.043;-0.038;-0.269;0.462;0.011;2.6;-2.6;29.8;66.27;2483;2018-04-16 22:54:39:555
-3.639;-9.129;0.739;-3.549;-9.128;0.5;-0.09;-0.001;0.238;-0.26;0.305;0.031;2.7;-2.6;29.8;66.27;2493;2018-04-16 22:54:39:565
-3.639;-9.129;0.739;-3.549;-9.128;0.5;-0.09;-0.001;0.238;-0.285;0.231;0.045;2.7;-2.6;29.8;66.27;2503;2018-04-16 22:54:39:575
-3.482;-9.091;0.656;-3.558;-9.128;0.437;0.161;0.033;0.087;-0.277;0.175;0.046;2.8;-2.6;29.9;66.27;2514;2018-04-16 22:54:39:586
-3.323;-9.111;0.371;-3.558;-9.128;0.437;0.161;0.033;0.087;-0.265;0.088;0.046;2.8;-2.6;29.9;44.65;2524;2018-04-16 22:54:39:596
-3.323;-9.111;0.371;-3.558;-9.128;0.437;0.161;0.033;0.087;-0.265;0.088;0.046;2.8;-2.6;29.9;44.65;2533;2018-04-16 22:54:39:605
-3.203;-9.137;0.472;-3.565;-9.127;0.389;0.31;0.007;-0.004;-0.238;-0.017;0.05;2.8;-2.6;29.8;44.65;2544;2018-04-16 22:54:39:616
-3.203;-9.137;0.472;-3.565;-9.127;0.389;0.31;0.007;-0.004;-0.188;-0.132;0.039;2.8;-2.6;29.8;44.65;2553;2018-04-16 22:54:39:625
-3.199;-9.171;0.606;-3.568;-9.127;0.366;0.361;-0.019;0.188;-0.14;-0.158;0.022;2.8;-2.6;29.7;44.65;2564;2018-04-16 22:54:39:636
-3.199;-9.171;0.606;-3.566;-9.128;0.357;0.366;-0.046;0.256;-0.111;-0.155;0.012;2.8;-2.5;29.7;44.65;2573;2018-04-16 22:54:39:645
-3.248;-9.187;0.624;-3.566;-9.128;0.357;0.366;-0.046;0.256;-0.078;-0.143;0.001;2.8;-2.5;29.7;44.65;2584;2018-04-16 22:54:39:656
-3.248;-9.187;0.624;-3.561;-9.13;0.36;0.255;-0.037;0.275;-0.043;-0.133;-0.007;2.9;-2.5;29.6;44.65;2594;2018-04-16 22:54:39:666
-3.344;-9.136;0.62;-3.561;-9.13;0.36;0.255;-0.037;0.275;0.0;-0.123;-0.012;2.9;-2.5;29.6;44.65;2604;2018-04-16 22:54:39:676
-3.344;-9.136;0.62;-3.554;-9.132;0.379;0.174;0.035;0.2;0.045;-0.112;-0.015;2.9;-2.5;29.5;44.65;2614;2018-04-16 22:54:39:686
-3.412;-9.088;0.499;-3.554;-9.132;0.379;0.174;0.035;0.2;0.087;-0.105;-0.021;2.9;-2.5;29.5;44.65;2624;2018-04-16 22:54:39:696
-3.412;-9.088;0.499;-3.547;-9.133;0.407;0.108;0.039;-0.001;0.12;-0.105;-0.02;2.9;-2.5;29.3;44.65;2634;2018-04-16 22:54:39:706
-3.475;-9.121;0.285;-3.547;-9.133;0.407;0.108;0.039;-0.001;0.145;-0.108;-0.017;2.9;-2.5;29.3;44.65;2644;2018-04-16 22:54:39:716
-3.475;-9.121;0.285;-3.547;-9.133;0.407;0.108;0.039;-0.001;0.145;-0.108;-0.017;2.9;-2.5;29.3;44.65;2653;2018-04-16 22:54:39:725
-3.443;-9.169;0.208;-3.542;-9.134;0.439;0.072;-0.02;-0.206;0.161;-0.119;-0.015;3.0;-2.5;29.4;44.65;2663;2018-04-16 22:54:39:735
-3.443;-9.169;0.208;-3.538;-9.134;0.47;0.104;-0.04;-0.232;0.15;-0.12;-0.01;3.0;-2.6;29.3;44.65;2674;2018-04-16 22:54:39:746
-3.387;-9.173;0.238;-3.538;-9.134;0.47;0.104;-0.04;-0.232;0.123;-0.06;-0.012;3.0;-2.6;29.3;44.65;2684;2018-04-16 22:54:39:756
-3.387;-9.173;0.238;-3.538;-9.134;0.47;0.104;-0.04;-0.232;0.123;-0.06;-0.012;3.0;-2.6;29.3;44.65;2693;2018-04-16 22:54:39:765
-3.381;-9.151;0.3;-3.532;-9.135;0.491;0.163;-0.033;-0.214;0.109;-0.007;-0.015;3.0;-2.6;29.3;44.65;2703;2018-04-16 22:54:39:775
-3.381;-9.151;0.3;-3.526;-9.137;0.499;0.116;-0.032;-0.171;0.098;0.079;-0.021;2.9;-2.6;29.3;44.65;2714;2018-04-16 22:54:39:786
-3.434;-9.145;0.351;-3.526;-9.137;0.499;0.116;-0.032;-0.171;0.095;0.169;-0.028;2.9;-2.6;29.3;44.65;2723;2018-04-16 22:54:39:795
-3.434;-9.145;0.351;-3.521;-9.139;0.5;0.053;0.012;-0.115;0.095;0.226;-0.033;2.9;-2.6;29.2;44.65;2734;2018-04-16 22:54:39:806
-3.48;-9.104;0.412;-3.521;-9.139;0.5;0.053;0.012;-0.115;0.095;0.226;-0.033;2.9;-2.6;29.2;44.65;2744;2018-04-16 22:54:39:816
-3.48;-9.104;0.412;-3.521;-9.139;0.5;0.053;0.012;-0.115;0.088;0.298;-0.035;2.9;-2.6;29.2;44.65;2753;2018-04-16 22:54:39:825
-3.524;-9.128;0.341;-3.518;-9.141;0.494;0.0;0.01;-0.067;0.081;0.343;-0.032;2.8;-2.6;29.3;44.65;2763;2018-04-16 22:54:39:835
-3.524;-9.128;0.341;-3.516;-9.142;0.481;-0.025;0.02;-0.246;0.057;0.325;-0.028;2.8;-2.6;29.3;44.65;2774;2018-04-16 22:54:39:846
-3.563;-9.135;0.183;-3.516;-9.142;0.481;-0.025;0.02;-0.246;0.057;0.325;-0.028;2.8;-2.6;29.3;44.65;2783;2018-04-16 22:54:39:855
-3.563;-9.135;0.183;-3.515;-9.143;0.466;-0.069;-0.007;-0.305;0.022;0.23;-0.02;2.8;-2.7;29.2;44.65;2794;2018-04-16 22:54:39:866
-3.567;-9.145;0.117;-3.515;-9.143;0.466;-0.069;-0.007;-0.305;-0.022;0.081;-0.006;2.8;-2.7;29.2;44.65;2804;2018-04-16 22:54:39:876
-3.567;-9.145;0.117;-3.515;-9.144;0.455;-0.056;-0.014;-0.351;-0.044;-0.048;0.001;2.8;-2.6;29.2;44.65;2814;2018-04-16 22:54:39:886
-3.565;-9.161;0.181;-3.515;-9.144;0.455;-0.056;-0.014;-0.351;-0.044;-0.048;0.001;2.8;-2.6;29.2;44.65;2823;2018-04-16 22:54:39:895
-3.565;-9.161;0.181;-3.516;-9.143;0.454;-0.034;-0.01;-0.169;-0.073;-0.216;0.02;2.8;-2.6;29.3;44.65;2834;2018-04-16 22:54:39:906
-3.525;-9.12;0.368;-3.516;-9.143;0.454;-0.034;-0.01;-0.169;-0.092;-0.275;0.027;2.8;-2.6;29.3;44.65;2844;2018-04-16 22:54:39:916
-3.525;-9.12;0.368;-3.519;-9.142;0.455;0.016;0.038;0.003;-0.095;-0.254;0.026;2.8;-2.6;29.3;44.65;2854;2018-04-16 22:54:39:926
-3.456;-9.066;0.511;-3.519;-9.142;0.455;0.016;0.038;0.003;-0.095;-0.254;0.026;2.8;-2.6;29.3;43.47;2863;2018-04-16 22:54:39:935
-3.456;-9.066;0.511;-3.521;-9.142;0.449;0.075;0.063;0.105;-0.095;-0.156;0.022;2.8;-2.5;29.4;43.47;2874;2018-04-16 22:54:39:946
-3.44;-9.09;0.588;-3.521;-9.142;0.449;0.075;0.063;0.105;-0.086;-0.017;0.011;2.8;-2.5;29.4;43.47;2884;2018-04-16 22:54:39:956
-3.44;-9.09;0.588;-3.522;-9.142;0.435;0.096;0.072;0.222;-0.068;0.079;0.005;2.8;-2.5;29.4;43.47;2894;2018-04-16 22:54:39:966
-3.44;-9.09;0.588;-3.522;-9.142;0.435;0.096;0.072;0.222;-0.068;0.079;0.005;2.8;-2.5;29.4;43.47;2904;2018-04-16 22:54:39:976
-3.451;-9.09;0.692;-3.521;-9.143;0.429;0.07;0.053;0.263;-0.039;0.171;-0.011;2.8;-2.4;29.5;43.47;2914;2018-04-16 22:54:39:986
-3.504;-9.135;0.643;-3.521;-9.143;0.429;0.07;0.053;0.263;-0.002;0.257;-0.021;2.8;-2.4;29.5;43.47;2924;2018-04-16 22:54:39:996
-3.504;-9.135;0.643;-3.519;-9.144;0.415;-0.006;-0.001;0.214;-0.002;0.257;-0.021;2.8;-2.4;29.6;43.47;2934;2018-04-16 22:54:40:006
-3.513;-9.139;0.559;-3.519;-9.144;0.415;-0.006;-0.001;0.214;0.061;0.352;-0.035;2.8;-2.4;29.6;43.47;2944;2018-04-16 22:54:40:016
-3.499;-9.106;0.37;-3.515;-9.146;0.404;0.007;0.032;0.018;0.089;0.36;-0.035;2.8;-2.4;29.7;43.47;2954;2018-04-16 22:54:40:026
-3.504;-9.081;0.236;-3.512;-9.148;0.397;0.008;0.067;-0.161;0.087;0.325;-0.037;2.8;-2.3;29.7;43.47;2965;2018-04-16 22:54:40:037
-3.504;-9.081;0.236;-3.512;-9.148;0.397;0.008;0.067;-0.161;0.078;0.261;-0.031;2.8;-2.3;29.7;43.47;2974;2018-04-16 22:54:40:046
-3.559;-9.064;0.214;-3.509;-9.149;0.395;-0.073;0.081;-0.185;0.049;0.115;-0.02;2.7;-2.3;29.9;43.47;2984;2018-04-16 22:54:40:056
-3.559;-9.064;0.214;-3.509;-9.149;0.395;-0.073;0.081;-0.185;0.049;0.115;-0.02;2.7;-2.3;29.9;43.47;2994;2018-04-16 22:54:40:066
-3.604;-9.078;0.255;-3.509;-9.149;0.395;-0.095;0.071;-0.14;0.035;0.05;-0.006;2.7;-2.3;29.9;43.47;3005;2018-04-16 22:54:40:077
-3.604;-9.078;0.255;-3.509;-9.149;0.395;-0.095;0.071;-0.14;0.035;0.05;-0.006;2.7;-2.3;29.9;43.47;3014;2018-04-16 22:54:40:086
-3.604;-9.078;0.255;-3.509;-9.149;0.395;-0.095;0.071;-0.14;0.035;0.05;-0.006;2.7;-2.3;29.9;43.47;3027;2018-04-16 22:54:40:099
-3.604;-9.078;0.255;-3.509;-9.149;0.395;-0.095;0.071;-0.14;0.035;0.05;-0.006;2.7;-2.3;29.9;43.47;3034;2018-04-16 22:54:40:106
-3.604;-9.078;0.255;-3.509;-9.149;0.395;-0.095;0.071;-0.14;0.035;0.05;-0.006;2.7;-2.3;29.9;43.47;3044;2018-04-16 22:54:40:116
-3.6;-9.127;0.271;-3.511;-9.148;0.398;-0.077;0.027;-0.111;0.013;-0.034;0.002;2.6;-2.3;29.8;43.47;3054;2018-04-16 22:54:40:126
-3.6;-9.127;0.271;-3.511;-9.148;0.398;-0.077;0.027;-0.111;0.013;-0.034;0.002;2.6;-2.3;29.8;43.47;3064;2018-04-16 22:54:40:136
-3.44;-9.104;0.206;-3.528;-9.142;0.392;0.126;0.035;-0.209;-0.039;-0.076;0.039;2.4;-2.3;29.8;43.47;3074;2018-04-16 22:54:40:146
-3.314;-9.128;0.146;-3.528;-9.142;0.392;0.126;0.035;-0.209;-0.057;-0.044;0.039;2.4;-2.3;29.8;43.47;3084;2018-04-16 22:54:40:156
-3.314;-9.128;0.146;-3.529;-9.142;0.375;0.232;-0.003;-0.232;-0.077;-0.026;0.035;2.5;-2.3;29.8;43.47;3094;2018-04-16 22:54:40:166
-3.272;-9.172;0.145;-3.529;-9.142;0.375;0.232;-0.003;-0.232;-0.077;-0.026;0.035;2.5;-2.3;29.8;43.47;3104;2018-04-16 22:54:40:176
-3.272;-9.172;0.145;-3.529;-9.142;0.375;0.232;-0.003;-0.232;-0.077;-0.024;0.024;2.5;-2.3;29.8;43.47;3114;2018-04-16 22:54:40:186
-3.27;-9.189;0.261;-3.526;-9.144;0.359;0.256;-0.045;-0.098;-0.071;-0.011;0.016;2.4;-2.3;29.8;43.47;3123;2018-04-16 22:54:40:195
-3.339;-9.145;0.346;-3.523;-9.145;0.344;0.167;0.012;0.0;-0.075;0.046;0.0;2.3;-2.3;29.9;43.47;3136;2018-04-16 22:54:40:208
-3.408;-9.137;0.279;-3.523;-9.145;0.344;0.167;0.012;0.0;-0.075;0.046;0.0;2.3;-2.3;29.9;43.47;3144;2018-04-16 22:54:40:216
-3.408;-9.137;0.279;-3.523;-9.145;0.344;0.167;0.012;0.0;-0.076;0.079;-0.001;2.3;-2.3;29.9;43.47;3154;2018-04-16 22:54:40:226
-3.468;-9.143;0.243;-3.522;-9.147;0.323;0.054;0.003;-0.08;-0.075;0.082;0.001;2.3;-2.3;29.9;43.47;3164;2018-04-16 22:54:40:236
-3.537;-9.098;0.293;-3.523;-9.147;0.306;-0.014;0.049;-0.013;-0.059;0.046;0.004;2.2;-2.3;29.9;43.47;3175;2018-04-16 22:54:40:247
-3.537;-9.098;0.293;-3.523;-9.147;0.306;-0.014;0.049;-0.013;-0.059;0.046;0.004;2.2;-2.3;29.9;47.43;3184;2018-04-16 22:54:40:256
-3.537;-9.098;0.293;-3.523;-9.147;0.306;-0.014;0.049;-0.013;-0.043;0.035;0.009;2.2;-2.3;30.0;47.43;3194;2018-04-16 22:54:40:266
-3.498;-9.103;0.318;-3.525;-9.146;0.297;0.002;0.058;0.011;-0.034;0.028;0.012;2.2;-2.3;30.0;47.43;3204;2018-04-16 22:54:40:276
-3.498;-9.103;0.318;-3.525;-9.146;0.297;0.002;0.058;0.011;-0.034;0.028;0.012;2.2;-2.3;30.0;47.43;3214;2018-04-16 22:54:40:286
-3.428;-9.108;0.271;-3.527;-9.146;0.293;0.098;0.038;-0.023;-0.01;0.016;0.016;2.1;-2.3;30.1;47.43;3224;2018-04-16 22:54:40:296
-3.428;-9.108;0.271;-3.527;-9.146;0.293;0.098;0.038;-0.023;-0.01;0.016;0.016;2.1;-2.3;30.1;47.43;3234;2018-04-16 22:54:40:306
-3.385;-9.167;0.285;-3.525;-9.146;0.294;0.129;-0.001;-0.025;0.013;0.007;0.006;2.1;-2.3;30.2;47.43;3244;2018-04-16 22:54:40:316
-3.382;-9.161;0.275;-3.524;-9.147;0.295;0.142;-0.015;-0.02;0.016;0.016;0.0;2.1;-2.3;30.1;47.43;3254;2018-04-16 22:54:40:326
-3.359;-9.109;0.174;-3.52;-9.148;0.293;0.161;0.04;-0.119;0.006;0.022;-0.004;2.0;-2.3;30.2;47.43;3264;2018-04-16 22:54:40:336
-3.359;-9.109;0.174;-3.52;-9.148;0.293;0.161;0.04;-0.119;0.004;0.007;-0.005;2.0;-2.3;30.2;47.43;3273;2018-04-16 22:54:40:345
-3.448;-9.104;0.11;-3.518;-9.149;0.29;0.07;0.045;-0.18;0.004;0.007;-0.005;2.0;-2.3;30.2;47.43;3284;2018-04-16 22:54:40:356
-3.448;-9.104;0.11;-3.518;-9.149;0.289;0.07;0.045;-0.18;-0.002;-0.029;-0.002;2.0;-2.2;30.2;47.43;3294;2018-04-16 22:54:40:366
-3.486;-9.123;0.132;-3.517;-9.15;0.289;0.036;0.04;-0.168;-0.009;-0.048;0.0;2.0;-2.2;30.2;47.43;3303;2018-04-16 22:54:40:375
-3.484;-9.139;0.184;-3.517;-9.15;0.287;0.033;0.011;-0.103;-0.015;-0.054;0.002;2.0;-2.2;30.2;47.43;3314;2018-04-16 22:54:40:386
-3.484;-9.139;0.184;-3.517;-9.15;0.287;0.033;0.011;-0.103;-0.026;-0.046;0.002;2.0;-2.2;30.2;47.43;3324;2018-04-16 22:54:40:396
-3.464;-9.142;0.22;-3.517;-9.15;0.287;0.033;0.011;-0.103;-0.026;-0.046;0.002;2.0;-2.2;30.2;47.43;3334;2018-04-16 22:54:40:406
-3.464;-9.134;0.254;-3.516;-9.15;0.284;0.056;0.002;-0.045;-0.037;-0.02;0.002;2.0;-2.3;30.3;47.43;3344;2018-04-16 22:54:40:416
-3.452;-9.134;0.254;-3.515;-9.151;0.277;0.032;0.041;0.022;-0.035;0.002;0.0;2.0;-2.3;30.3;47.43;3354;2018-04-16 22:54:40:426
-3.505;-9.105;0.294;-3.515;-9.151;0.277;0.032;0.041;0.022;-0.034;0.016;0.002;2.0;-2.3;30.3;47.43;3364;2018-04-16 22:54:40:436
-3.505;-9.105;0.294;-3.515;-9.151;0.277;0.032;0.041;0.022;-0.034;0.016;0.002;2.0;-2.3;30.3;47.43;3374;2018-04-16 22:54:40:446
-3.553;-9.087;0.304;-3.516;-9.151;0.271;-0.037;0.063;0.033;-0.026;0.023;0.001;2.0;-2.4;30.3;47.43;3384;2018-04-16 22:54:40:456
-3.553;-9.087;0.304;-3.516;-9.151;0.271;-0.037;0.063;0.033;-0.02;0.028;0.006;2.0;-2.4;30.3;47.43;3394;2018-04-16 22:54:40:466
-3.545;-9.049;0.314;-3.519;-9.15;0.266;-0.026;0.101;0.047;-0.012;0.026;0.01;2.0;-2.4;30.4;47.43;3404;2018-04-16 22:54:40:476
-3.521;-9.069;0.267;-3.522;-9.149;0.264;0.001;0.079;0.003;-0.006;0.016;0.011;1.9;-2.5;30.4;47.43;3414;2018-04-16 22:54:40:486
-3.521;-9.069;0.267;-3.522;-9.149;0.264;0.001;0.079;0.003;-0.006;0.016;0.011;1.9;-2.5;30.4;47.43;3424;2018-04-16 22:54:40:496
-3.492;-9.103;0.248;-3.524;-9.148;0.264;0.032;0.045;-0.016;-0.001;-0.006;0.015;2.0;-2.5;30.3;47.43;3434;2018-04-16 22:54:40:506
-3.492;-9.103;0.248;-3.524;-9.148;0.264;0.032;0.045;-0.016;0.002;-0.02;0.015;2.0;-2.5;30.3;47.43;3444;2018-04-16 22:54:40:516
-3.468;-9.112;0.232;-3.525;-9.147;0.266;0.08;0.029;-0.029;0.005;-0.027;0.015;1.9;-2.5;30.3;47.43;3454;2018-04-16 22:54:40:526
-3.43;-9.11;0.224;-3.525;-9.147;0.266;0.08;0.029;-0.029;0.005;-0.027;0.015;1.9;-2.5;30.3;47.43;3464;2018-04-16 22:54:40:536
-3.43;-9.11;0.224;-3.526;-9.147;0.266;0.085;0.048;-0.039;-0.001;-0.018;0.007;2.0;-2.6;30.3;47.43;3474;2018-04-16 22:54:40:546
-3.463;-9.115;0.206;-3.526;-9.147;0.266;0.085;0.048;-0.039;-0.004;-0.01;0.006;2.0;-2.6;30.3;47.43;3483;2018-04-16 22:54:40:555
-3.463;-9.115;0.206;-3.526;-9.147;0.266;0.085;0.048;-0.039;-0.009;0.002;0.001;2.0;-2.6;30.2;47.43;3494;2018-04-16 22:54:40:566
-3.474;-9.129;0.209;-3.525;-9.147;0.264;0.051;0.018;-0.054;-0.009;0.002;0.001;2.0;-2.6;30.2;49.48;3504;2018-04-16 22:54:40:576
-3.463;-9.102;0.215;-3.525;-9.148;0.258;0.069;0.047;-0.057;-0.016;0.011;0.002;2.0;-2.6;30.3;49.48;3514;2018-04-16 22:54:40:586
-3.461;-9.102;0.192;-3.525;-9.148;0.258;0.069;0.047;-0.057;-0.02;0.021;0.002;2.0;-2.6;30.3;49.48;3524;2018-04-16 22:54:40:596
-3.461;-9.102;0.192;-3.525;-9.148;0.25;0.06;0.013;-0.039;-0.026;0.027;0.002;2.0;-2.6;30.1;49.48;3534;2018-04-16 22:54:40:606
-3.467;-9.137;0.211;-3.525;-9.148;0.25;0.06;0.013;-0.039;-0.031;0.027;0.004;2.0;-2.6;30.1;49.48;3547;2018-04-16 22:54:40:619
-3.467;-9.137;0.211;-3.525;-9.148;0.247;0.041;0.007;-0.014;-0.031;0.024;0.004;2.0;-2.6;30.2;49.48;3554;2018-04-16 22:54:40:626
-3.523;-9.159;0.275;-3.526;-9.148;0.24;-0.007;-0.023;0.046;-0.032;0.022;0.011;2.0;-2.6;30.2;49.48;3564;2018-04-16 22:54:40:636
-3.523;-9.159;0.275;-3.526;-9.148;0.24;-0.007;-0.023;0.046;-0.032;0.018;0.012;2.0;-2.6;30.2;49.48;3574;2018-04-16 22:54:40:646
-3.516;-9.169;0.292;-3.528;-9.147;0.236;0.009;0.016;0.041;-0.015;0.007;0.009;2.0;-2.6;30.1;49.48;3584;2018-04-16 22:54:40:656
-3.516;-9.169;0.292;-3.528;-9.147;0.236;0.009;0.016;0.041;-0.001;-0.015;0.011;2.0;-2.6;30.1;49.48;3594;2018-04-16 22:54:40:666
-3.536;-9.074;0.262;-3.531;-9.146;0.239;0.011;0.108;0.01;-0.001;-0.015;0.011;2.0;-2.7;30.1;49.48;3603;2018-04-16 22:54:40:675
-3.5;-9.035;0.25;-3.531;-9.146;0.239;0.011;0.108;0.01;0.028;-0.054;0.018;2.0;-2.7;30.1;49.48;3614;2018-04-16 22:54:40:686
-3.438;-9.033;0.233;-3.533;-9.145;0.247;0.095;0.111;-0.014;0.028;-0.054;0.018;2.0;-2.7;30.2;49.48;3624;2018-04-16 22:54:40:696
-3.438;-9.033;0.233;-3.533;-9.145;0.247;0.095;0.111;-0.014;0.028;-0.048;0.017;2.0;-2.7;30.2;49.48;3634;2018-04-16 22:54:40:706
-3.37;-9.108;0.209;-3.534;-9.144;0.252;0.164;0.037;-0.043;0.012;-0.022;0.016;2.0;-2.7;30.2;49.48;3644;2018-04-16 22:54:40:716
-3.37;-9.108;0.209;-3.534;-9.144;0.252;0.164;0.037;-0.043;0.006;-0.011;0.017;2.0;-2.7;30.2;49.48;3655;2018-04-16 22:54:40:727
-3.346;-9.151;0.126;-3.534;-9.144;0.253;0.181;-0.032;-0.146;0.013;-0.026;0.013;2.1;-2.6;30.1;49.48;3665;2018-04-16 22:54:40:737
-3.358;-9.215;0.12;-3.534;-9.144;0.253;0.181;-0.032;-0.146;0.023;-0.048;0.004;2.1;-2.6;30.1;49.48;3674;2018-04-16 22:54:40:746
-3.358;-9.215;0.12;-3.531;-9.145;0.259;0.144;-0.107;-0.128;0.027;-0.064;-0.005;2.1;-2.6;30.2;49.48;3684;2018-04-16 22:54:40:756
-3.403;-9.245;0.138;-3.531;-9.145;0.259;0.144;-0.107;-0.128;0.027;-0.064;-0.005;2.1;-2.6;30.2;49.48;3694;2018-04-16 22:54:40:766
-3.403;-9.245;0.138;-3.531;-9.145;0.259;0.144;-0.107;-0.128;0.022;-0.061;-0.007;2.1;-2.6;30.2;49.48;3704;2018-04-16 22:54:40:776
-3.448;-9.201;0.148;-3.528;-9.146;0.264;0.08;-0.055;-0.116;0.022;-0.061;-0.007;2.1;-2.6;30.1;49.48;3714;2018-04-16 22:54:40:786
-3.531;-9.171;0.13;-3.528;-9.146;0.264;0.08;-0.055;-0.116;-0.015;-0.012;-0.012;2.1;-2.6;30.0;49.48;3724;2018-04-16 22:54:40:796
-3.597;-9.123;0.134;-3.525;-9.148;0.259;-0.072;0.024;-0.125;-0.024;-0.009;-0.009;2.1;-2.6;30.0;49.48;3734;2018-04-16 22:54:40:806
-3.597;-9.123;0.134;-3.525;-9.148;0.259;-0.072;0.024;-0.125;-0.024;-0.009;-0.009;2.1;-2.6;30.0;49.48;3744;2018-04-16 22:54:40:816
-3.625;-9.076;0.162;-3.525;-9.148;0.259;-0.072;0.024;-0.125;-0.037;-0.004;-0.002;2.1;-2.6;30.0;49.48;3755;2018-04-16 22:54:40:827
-3.6;-9.018;0.22;-3.526;-9.147;0.251;-0.099;0.071;-0.09;-0.054;0.009;0.01;2.1;-2.6;30.1;49.48;3764;2018-04-16 22:54:40:836
-3.6;-9.018;0.22;-3.53;-9.146;0.241;-0.043;0.133;0.008;-0.053;0.016;0.013;2.1;-2.5;30.1;49.48;3775;2018-04-16 22:54:40:847
-3.516;-9.042;0.274;-3.53;-9.146;0.241;-0.043;0.133;0.008;-0.053;0.016;0.013;2.1;-2.5;30.1;49.48;3784;2018-04-16 22:54:40:856
-3.516;-9.042;0.274;-3.53;-9.146;0.241;-0.043;0.133;0.008;-0.051;0.022;0.02;2.1;-2.5;30.1;49.48;3794;2018-04-16 22:54:40:866
-3.414;-9.128;0.292;-3.533;-9.145;0.231;0.078;0.063;0.055;-0.034;0.012;0.018;2.0;-2.5;30.1;49.48;3804;2018-04-16 22:54:40:876
-3.363;-9.128;0.286;-3.534;-9.145;0.226;0.142;0.014;0.067;-0.026;0.004;0.012;2.1;-2.5;30.0;49.48;3814;2018-04-16 22:54:40:886
-3.363;-9.128;0.286;-3.534;-9.145;0.226;0.142;0.014;0.067;-0.024;-0.005;0.01;2.1;-2.5;30.0;49.54;3826;2018-04-16 22:54:40:898
-3.363;-9.128;0.286;-3.534;-9.145;0.226;0.142;0.014;0.067;-0.024;-0.005;0.01;2.1;-2.5;30.0;49.54;3834;2018-04-16 22:54:40:906
-3.391;-9.093;0.262;-3.533;-9.145;0.223;0.142;0.052;0.039;-0.022;-0.013;0.005;2.1;-2.5;30.1;49.54;3844;2018-04-16 22:54:40:916
-3.391;-9.093;0.262;-3.533;-9.145;0.223;0.142;0.052;0.039;-0.022;-0.013;0.005;2.1;-2.5;30.1;49.54;3854;2018-04-16 22:54:40:926
-3.519;-9.052;0.271;-3.533;-9.145;0.223;0.014;0.093;0.047;-0.012;-0.035;0.001;2.1;-2.5;30.0;49.54;3864;2018-04-16 22:54:40:936
-3.588;-9.05;0.257;-3.535;-9.144;0.228;-0.053;0.094;0.03;-0.001;-0.049;0.005;2.1;-2.6;30.0;49.54;3874;2018-04-16 22:54:40:946
-3.598;-9.085;0.253;-3.535;-9.144;0.228;-0.053;0.094;0.03;0.011;-0.055;0.01;2.1;-2.6;30.0;49.54;3884;2018-04-16 22:54:40:956
-3.598;-9.085;0.253;-3.535;-9.144;0.228;-0.053;0.094;0.03;0.017;-0.055;0.012;2.1;-2.6;30.0;49.54;3894;2018-04-16 22:54:40:966
-3.579;-9.099;0.225;-3.538;-9.143;0.235;-0.041;0.044;-0.01;0.02;-0.053;0.015;2.1;-2.5;29.9;49.54;3905;2018-04-16 22:54:40:977
-3.527;-9.164;0.208;-3.541;-9.142;0.241;0.023;-0.041;-0.038;0.024;-0.038;0.017;2.0;-2.5;29.9;49.54;3915;2018-04-16 22:54:40:987
-3.485;-9.202;0.172;-3.541;-9.142;0.241;0.023;-0.041;-0.038;0.016;-0.017;0.016;2.0;-2.5;29.9;49.54;3923;2018-04-16 22:54:40:995
-3.485;-9.202;0.172;-3.543;-9.141;0.243;0.094;-0.035;-0.097;0.013;-0.012;0.013;2.0;-2.5;30.0;49.54;3934;2018-04-16 22:54:41:006
-3.443;-9.161;0.153;-3.543;-9.141;0.243;0.094;-0.035;-0.097;0.013;-0.012;0.013;2.0;-2.5;30.0;49.54;3944;2018-04-16 22:54:41:016
-3.443;-9.161;0.153;-3.543;-9.141;0.245;0.117;-0.006;-0.102;0.016;-0.012;0.006;2.1;-2.5;30.0;49.54;3954;2018-04-16 22:54:41:026
-3.506;-9.145;0.153;-3.543;-9.141;0.245;0.117;-0.006;-0.102;0.009;-0.009;0.004;2.1;-2.5;30.0;49.54;3964;2018-04-16 22:54:41:036
-3.506;-9.145;0.153;-3.543;-9.141;0.246;0.008;-0.002;-0.077;0.002;-0.002;-0.001;2.1;-2.4;30.0;49.54;3974;2018-04-16 22:54:41:046
-3.548;-9.135;0.176;-3.543;-9.141;0.245;-0.015;0.028;-0.076;-0.002;0.006;-0.001;2.1;-2.4;30.0;49.54;3985;2018-04-16 22:54:41:057
-3.548;-9.135;0.176;-3.543;-9.141;0.245;-0.015;0.028;-0.076;-0.002;0.006;-0.001;2.1;-2.4;30.0;49.54;3995;2018-04-16 22:54:41:067
-3.573;-9.076;0.157;-3.543;-9.141;0.243;-0.03;0.065;-0.086;-0.006;0.013;0.0;2.1;-2.4;30.0;49.54;4004;2018-04-16 22:54:41:076
-3.561;-9.063;0.135;-3.544;-9.141;0.238;-0.017;0.077;-0.103;-0.012;0.017;0.005;2.1;-2.5;30.0;49.54;4014;2018-04-16 22:54:41:086
-3.561;-9.063;0.135;-3.544;-9.141;0.238;-0.017;0.077;-0.103;-0.012;0.017;0.005;2.1;-2.5;30.0;49.54;4023;2018-04-16 22:54:41:095
-3.531;-9.111;0.159;-3.545;-9.14;0.233;0.014;0.029;-0.074;-0.011;0.021;0.009;2.1;-2.5;30.1;49.54;4034;2018-04-16 22:54:41:106
-3.487;-9.151;0.177;-3.545;-9.14;0.233;0.014;0.029;-0.074;-0.017;0.027;0.01;2.1;-2.5;30.1;49.54;4044;2018-04-16 22:54:41:116
-3.487;-9.151;0.177;-3.546;-9.14;0.227;0.081;0.012;-0.029;-0.022;0.035;0.01;2.1;-2.4;30.0;49.54;4057;2018-04-16 22:54:41:129
-3.425;-9.133;0.206;-3.546;-9.14;0.227;0.081;0.012;-0.029;-0.022;0.044;0.006;2.1;-2.4;30.0;49.54;4064;2018-04-16 22:54:41:136
-3.425;-9.133;0.206;-3.546;-9.14;0.227;0.081;0.012;-0.029;-0.022;0.044;0.006;2.1;-2.4;30.0;49.54;4074;2018-04-16 22:54:41:146
-3.409;-9.1;0.241;-3.546;-9.141;0.22;0.136;0.04;0.021;-0.018;0.051;0.001;2.1;-2.4;30.1;49.54;4084;2018-04-16 22:54:41:156
-3.455;-9.056;0.314;-3.546;-9.141;0.22;0.136;0.04;0.021;-0.013;0.06;-0.004;2.1;-2.4;30.1;49.54;4094;2018-04-16 22:54:41:166
-3.519;-9.054;0.353;-3.544;-9.141;0.214;0.06;0.077;0.107;-0.01;0.071;-0.009;2.1;-2.4;30.0;49.54;4105;2018-04-16 22:54:41:177
-3.579;-9.088;0.348;-3.543;-9.142;0.21;-0.036;0.053;0.138;0.009;0.093;-0.007;2.1;-2.4;30.0;49.54;4114;2018-04-16 22:54:41:186
-3.579;-9.088;0.348;-3.543;-9.142;0.21;-0.036;0.053;0.138;0.009;0.093;-0.007;2.1;-2.4;30.0;49.54;4126;2018-04-16 22:54:41:198
-3.567;-9.105;0.279;-3.543;-9.142;0.21;-0.036;0.053;0.138;0.035;0.078;-0.004;2.1;-2.4;30.0;49.54;4135;2018-04-16 22:54:41:207
-3.567;-9.105;0.279;-3.543;-9.142;0.212;-0.028;0.043;0.062;0.066;0.05;-0.007;2.1;-2.4;30.0;49.54;4144;2018-04-16 22:54:41:216
-3.534;-9.052;0.223;-3.543;-9.142;0.223;0.028;0.089;-0.003;0.083;0.031;-0.005;2.1;-2.4;30.0;49.54;4153;2018-04-16 22:54:41:225
-3.446;-9.037;0.263;-3.543;-9.142;0.223;0.028;0.089;-0.003;0.083;0.031;-0.005;2.1;-2.4;30.0;49.12;4164;2018-04-16 22:54:41:236
-3.446;-9.037;0.263;-3.541;-9.142;0.238;0.138;0.072;0.105;0.094;0.039;-0.006;2.1;-2.4;29.9;49.12;4174;2018-04-16 22:54:41:246
-3.378;-9.07;0.35;-3.541;-9.142;0.238;0.138;0.072;0.105;0.093;0.081;-0.01;2.1;-2.4;29.9;49.12;4184;2018-04-16 22:54:41:256
-3.378;-9.07;0.35;-3.541;-9.142;0.238;0.138;0.072;0.105;0.093;0.081;-0.01;2.1;-2.4;29.9;49.12;4194;2018-04-16 22:54:41:266
-3.323;-9.106;0.293;-3.537;-9.143;0.244;0.214;0.037;0.05;0.078;0.161;-0.015;2.1;-2.5;30.0;49.12;4204;2018-04-16 22:54:41:276
-3.323;-9.106;0.293;-3.537;-9.143;0.244;0.214;0.037;0.05;0.082;0.164;-0.022;2.1;-2.5;30.2;49.12;4214;2018-04-16 22:54:41:286
-3.342;-9.136;0.146;-3.532;-9.145;0.245;0.19;0.009;-0.099;0.095;0.122;-0.023;2.1;-2.5;30.2;49.12;4224;2018-04-16 22:54:41:296
-3.425;-9.177;0.147;-3.527;-9.147;0.255;0.072;-0.023;-0.096;0.104;0.079;-0.027;2.1;-2.4;30.1;49.12;4234;2018-04-16 22:54:41:306
-3.499;-9.166;0.182;-3.527;-9.147;0.255;0.072;-0.023;-0.096;0.104;0.079;-0.027;2.1;-2.4;30.1;49.12;4243;2018-04-16 22:54:41:315
-3.499;-9.166;0.182;-3.523;-9.148;0.267;-0.02;-0.006;-0.075;0.092;0.045;-0.023;2.0;-2.4;30.2;49.12;4254;2018-04-16 22:54:41:326
-3.56;-9.134;0.187;-3.523;-9.148;0.267;-0.02;-0.006;-0.075;0.072;0.04;-0.023;2.0;-2.4;30.2;49.12;4264;2018-04-16 22:54:41:336
-3.56;-9.134;0.187;-3.523;-9.148;0.267;-0.02;-0.006;-0.075;0.072;0.04;-0.023;2.0;-2.4;30.2;49.12;4274;2018-04-16 22:54:41:346
-3.578;-9.12;0.153;-3.52;-9.149;0.273;-0.058;0.029;-0.12;0.045;0.034;-0.015;1.9;-2.4;30.2;49.12;4284;2018-04-16 22:54:41:356
-3.578;-9.12;0.153;-3.52;-9.149;0.273;-0.058;0.029;-0.12;0.045;0.034;-0.015;1.9;-2.4;30.2;49.12;4294;2018-04-16 22:54:41:366
-3.566;-9.056;0.199;-3.52;-9.149;0.278;-0.046;0.093;-0.079;0.028;0.004;-0.001;1.9;-2.4;30.2;49.12;4304;2018-04-16 22:54:41:376
-3.509;-9.052;0.281;-3.522;-9.148;0.281;0.013;0.096;0.0;0.018;-0.002;0.009;1.9;-2.4;30.2;49.12;4314;2018-04-16 22:54:41:386
-3.509;-9.052;0.281;-3.522;-9.148;0.281;0.013;0.096;0.0;0.018;-0.002;0.009;1.9;-2.4;30.2;49.12;4324;2018-04-16 22:54:41:396
-3.509;-9.052;0.281;-3.522;-9.148;0.281;0.013;0.096;0.0;0.018;-0.002;0.009;1.9;-2.4;30.2;49.12;4334;2018-04-16 22:54:41:406
-3.452;-9.106;0.304;-3.523;-9.147;0.283;0.071;0.041;0.021;0.013;0.011;0.01;1.8;-2.4;30.2;49.12;4344;2018-04-16 22:54:41:416
-3.426;-9.164;0.243;-3.523;-9.147;0.283;0.084;-0.032;-0.031;0.006;0.016;0.009;1.8;-2.3;30.3;49.12;4354;2018-04-16 22:54:41:426
-3.462;-9.175;0.239;-3.523;-9.147;0.283;0.084;-0.032;-0.031;-0.002;0.009;0.0;1.8;-2.3;30.3;49.12;4364;2018-04-16 22:54:41:436
-3.474;-9.154;0.241;-3.522;-9.148;0.281;0.048;-0.006;-0.04;-0.007;-0.001;-0.004;1.8;-2.3;30.3;49.12;4374;2018-04-16 22:54:41:446
-3.474;-9.154;0.241;-3.522;-9.148;0.281;0.048;-0.006;-0.04;-0.007;-0.001;-0.004;1.8;-2.3;30.3;49.12;4384;2018-04-16 22:54:41:456
-3.5;-9.082;0.253;-3.522;-9.148;0.278;0.022;0.066;-0.025;-0.021;-0.012;0.001;1.7;-2.3;30.4;49.12;4394;2018-04-16 22:54:41:466
-3.5;-9.082;0.253;-3.522;-9.148;0.278;0.022;0.066;-0.025;-0.021;-0.012;0.001;1.7;-2.3;30.4;49.12;4404;2018-04-16 22:54:41:476
-3.515;-9.084;0.293;-3.523;-9.148;0.274;0.009;0.064;0.02;-0.033;-0.017;0.006;1.7;-2.3;30.4;49.12;4414;2018-04-16 22:54:41:486
-3.515;-9.084;0.293;-3.523;-9.148;0.274;0.009;0.064;0.02;-0.035;-0.021;0.012;1.7;-2.3;30.4;49.12;4424;2018-04-16 22:54:41:496
-3.503;-9.122;0.273;-3.525;-9.147;0.269;0.029;0.017;-0.001;-0.038;-0.032;0.013;1.7;-2.3;30.5;49.12;4433;2018-04-16 22:54:41:505
-3.49;-9.17;0.278;-3.525;-9.147;0.269;0.029;0.017;-0.001;-0.038;-0.032;0.013;1.7;-2.3;30.5;49.12;4443;2018-04-16 22:54:41:515
-3.49;-9.17;0.278;-3.525;-9.146;0.266;0.047;-0.034;0.005;-0.035;-0.045;0.013;1.6;-2.2;30.3;49.12;4454;2018-04-16 22:54:41:526
-3.48;-9.181;0.271;-3.527;-9.146;0.266;0.047;-0.034;0.005;-0.029;-0.053;0.015;1.6;-2.2;30.3;49.12;4464;2018-04-16 22:54:41:536
-3.466;-9.172;0.253;-3.529;-9.146;0.265;0.063;-0.026;-0.012;-0.027;-0.061;0.013;1.6;-2.2;30.4;49.12;4474;2018-04-16 22:54:41:546
-3.466;-9.172;0.253;-3.529;-9.146;0.265;0.063;-0.026;-0.012;-0.027;-0.061;0.013;1.6;-2.2;30.4;49.92;4483;2018-04-16 22:54:41:555
-3.449;-9.152;0.244;-3.529;-9.146;0.265;0.063;-0.026;-0.012;-0.024;-0.07;0.016;1.6;-2.2;30.4;49.92;4493;2018-04-16 22:54:41:565
-3.409;-9.115;0.257;-3.53;-9.145;0.265;0.091;-0.01;-0.016;-0.022;-0.061;0.011;1.6;-2.2;30.3;49.92;4503;2018-04-16 22:54:41:575
-3.409;-9.115;0.257;-3.531;-9.145;0.264;0.133;0.033;-0.016;-0.029;-0.045;0.012;1.6;-2.1;30.2;49.92;4513;2018-04-16 22:54:41:585
-3.402;-9.125;0.247;-3.531;-9.145;0.264;0.133;0.033;-0.016;-0.035;-0.031;0.011;1.6;-2.1;30.2;49.92;4524;2018-04-16 22:54:41:596
-3.423;-9.122;0.224;-3.532;-9.145;0.259;0.109;0.023;-0.035;-0.04;-0.022;0.007;1.6;-2.2;30.1;49.92;4534;2018-04-16 22:54:41:606
-3.423;-9.122;0.224;-3.532;-9.145;0.259;0.109;0.023;-0.035;-0.04;-0.022;0.007;1.6;-2.2;30.1;49.92;4544;2018-04-16 22:54:41:616
-3.446;-9.102;0.239;-3.533;-9.145;0.252;0.081;0.054;-0.012;-0.044;-0.024;0.01;1.6;-2.1;30.1;49.92;4554;2018-04-16 22:54:41:626
-3.469;-9.102;0.255;-3.533;-9.145;0.252;0.081;0.054;-0.012;-0.042;-0.032;0.01;1.6;-2.1;30.1;49.92;4563;2018-04-16 22:54:41:635
-3.469;-9.102;0.255;-3.534;-9.144;0.248;0.043;0.02;0.037;-0.032;-0.043;0.011;1.6;-2.1;30.1;49.92;4574;2018-04-16 22:54:41:646
-3.486;-9.149;0.293;-3.534;-9.144;0.248;0.043;0.02;0.037;-0.032;-0.043;0.011;1.6;-2.1;30.1;49.92;4584;2018-04-16 22:54:41:656
-3.486;-9.149;0.293;-3.535;-9.144;0.248;0.067;0.01;0.051;-0.018;-0.048;0.012;1.7;-2.1;30.1;49.92;4594;2018-04-16 22:54:41:666
-3.476;-9.13;0.326;-3.535;-9.144;0.248;0.067;0.01;0.051;-0.009;-0.039;0.012;1.7;-2.1;30.1;49.92;4604;2018-04-16 22:54:41:676
-3.479;-9.125;0.328;-3.537;-9.143;0.25;0.058;0.018;0.078;-0.001;-0.022;0.009;1.7;-2.1;30.2;49.92;4614;2018-04-16 22:54:41:686
-3.479;-9.125;0.328;-3.537;-9.143;0.25;0.058;0.018;0.078;-0.001;-0.022;0.009;1.7;-2.1;30.2;49.92;4624;2018-04-16 22:54:41:696
-3.479;-9.125;0.328;-3.537;-9.143;0.25;0.058;0.018;0.078;-0.001;-0.022;0.009;1.7;-2.1;30.2;49.92;4634;2018-04-16 22:54:41:706
-3.539;-9.141;0.345;-3.538;-9.143;0.251;-0.001;0.002;0.094;0.009;0.028;0.007;1.6;-2.1;30.3;49.92;4644;2018-04-16 22:54:41:716
-3.557;-9.072;0.334;-3.538;-9.143;0.251;-0.001;0.002;0.094;0.02;0.049;0.009;1.6;-2.1;30.3;49.92;4654;2018-04-16 22:54:41:726
-3.521;-9.141;0.31;-3.541;-9.142;0.252;-0.006;0.05;0.077;0.042;0.064;0.02;1.7;-2.1;30.3;49.92;4664;2018-04-16 22:54:41:736
-3.521;-9.141;0.31;-3.541;-9.14;0.256;-0.006;0.0;0.013;0.045;0.059;0.016;1.7;-2.1;30.3;49.92;4674;2018-04-16 22:54:41:746
-3.517;-9.129;0.265;-3.544;-9.14;0.256;0.02;0.0;0.013;0.045;0.059;0.016;1.7;-2.1;30.3;49.92;4684;2018-04-16 22:54:41:756
-3.517;-9.129;0.265;-3.544;-9.14;0.256;0.02;0.0;0.013;0.051;0.04;0.018;1.7;-2.1;30.3;49.92;4694;2018-04-16 22:54:41:766
-3.466;-9.093;0.272;-3.547;-9.139;0.263;0.081;0.046;0.009;0.054;0.037;0.017;1.7;-2.1;30.3;49.92;4704;2018-04-16 22:54:41:776
-3.434;-9.109;0.321;-3.549;-9.138;0.27;0.128;0.039;0.061;0.053;0.05;0.016;1.7;-2.1;30.4;49.92;4715;2018-04-16 22:54:41:787
-3.385;-9.1;0.334;-3.549;-9.138;0.27;0.128;0.039;0.061;0.051;0.065;0.013;1.7;-2.1;30.4;49.92;4725;2018-04-16 22:54:41:797
-3.385;-9.1;0.334;-3.549;-9.138;0.27;0.128;0.039;0.061;0.051;0.065;0.013;1.7;-2.1;30.4;49.92;4734;2018-04-16 22:54:41:806
-3.391;-9.072;0.273;-3.551;-9.137;0.275;0.169;0.062;0.01;0.049;0.073;0.013;1.7;-2.0;30.5;49.92;4744;2018-04-16 22:54:41:816
-3.391;-9.091;0.23;-3.551;-9.137;0.275;0.169;0.062;0.01;0.046;0.068;0.012;1.7;-2.0;30.6;49.92;4755;2018-04-16 22:54:41:827
-3.443;-9.091;0.23;-3.552;-9.136;0.279;0.109;0.046;-0.049;0.05;0.035;0.01;1.7;-2.0;30.6;49.92;4764;2018-04-16 22:54:41:836
-3.488;-9.124;0.201;-3.553;-9.136;0.282;0.064;0.012;-0.081;0.049;-0.01;0.015;1.7;-2.0;30.6;49.92;4774;2018-04-16 22:54:41:846
-3.48;-9.143;0.186;-3.555;-9.135;0.291;0.075;-0.008;-0.105;0.039;-0.033;0.018;1.7;-2.1;30.5;49.92;4788;2018-04-16 22:54:41:860
-3.48;-9.143;0.186;-3.555;-9.135;0.291;0.075;-0.008;-0.105;0.039;-0.033;0.018;1.7;-2.1;30.5;49.92;4794;2018-04-16 22:54:41:866
-3.439;-9.176;0.208;-3.558;-9.134;0.299;0.118;-0.042;-0.091;0.029;-0.055;0.023;1.6;-2.1;30.5;49.77;4803;2018-04-16 22:54:41:875
-3.439;-9.176;0.208;-3.558;-9.134;0.299;0.118;-0.042;-0.091;0.011;-0.062;0.022;1.6;-2.1;30.5;49.77;4814;2018-04-16 22:54:41:886
-3.424;-9.19;0.23;-3.56;-9.132;0.304;0.116;-0.058;-0.043;0.011;-0.062;0.022;1.6;-2.1;30.5;49.77;4823;2018-04-16 22:54:41:895
-3.445;-9.209;0.283;-3.56;-9.132;0.304;0.116;-0.058;-0.043;0.002;-0.055;0.027;1.6;-2.1;30.5;49.77;4834;2018-04-16 22:54:41:906
-3.445;-9.209;0.283;-3.563;-9.131;0.308;0.091;-0.054;-0.017;0.004;-0.039;0.024;1.6;-2.0;30.5;49.77;4843;2018-04-16 22:54:41:915
-3.485;-9.176;0.296;-3.563;-9.131;0.308;0.091;-0.054;-0.017;0.005;-0.026;0.024;1.6;-2.0;30.5;49.77;4854;2018-04-16 22:54:41:926
-3.503;-9.052;0.29;-3.567;-9.13;0.31;0.064;0.077;-0.02;0.002;0.0;0.024;1.6;-2.0;30.6;49.77;4864;2018-04-16 22:54:41:936
-3.535;-8.991;0.308;-3.569;-9.129;0.309;0.034;0.137;-0.002;0.002;0.0;0.024;1.6;-2.0;30.6;49.77;4874;2018-04-16 22:54:41:946
-3.535;-8.991;0.308;-3.569;-9.129;0.309;0.034;0.137;-0.002;-0.001;0.017;0.022;1.6;-2.0;30.6;49.77;4885;2018-04-16 22:54:41:957
-3.545;-8.966;0.265;-3.569;-9.129;0.309;0.034;0.137;-0.002;-0.007;0.033;0.024;1.6;-2.0;30.6;49.77;4894;2018-04-16 22:54:41:966
-3.545;-8.966;0.265;-3.574;-9.127;0.305;0.027;0.145;-0.038;-0.007;0.033;0.024;1.5;-2.0;30.6;49.77;4904;2018-04-16 22:54:41:976
-3.542;-9.032;0.254;-3.58;-9.125;0.303;0.062;0.061;-0.081;-0.002;0.007;0.034;1.5;-2.1;30.6;49.77;4914;2018-04-16 22:54:41:986
-3.47;-9.12;0.169;-3.58;-9.125;0.303;0.062;0.061;-0.081;-0.002;0.007;0.034;1.5;-2.1;30.6;49.77;4924;2018-04-16 22:54:41:996
-3.47;-9.12;0.169;-3.58;-9.125;0.303;0.062;0.061;-0.081;0.002;-0.016;0.038;1.5;-2.1;30.6;49.77;4934;2018-04-16 22:54:42:006
-3.427;-9.17;0.136;-3.586;-9.123;0.304;0.158;-0.047;-0.168;0.006;-0.051;0.039;1.5;-2.1;30.6;49.77;4944;2018-04-16 22:54:42:016
-3.373;-9.194;0.108;-3.586;-9.123;0.304;0.158;-0.047;-0.168;0.0;-0.088;0.037;1.5;-2.1;30.6;49.77;4954;2018-04-16 22:54:42:026
-3.373;-9.194;0.108;-3.59;-9.121;0.308;0.214;-0.08;-0.196;-0.002;-0.095;0.038;1.4;-2.2;30.5;49.77;4964;2018-04-16 22:54:42:036
-3.393;-9.243;0.078;-3.593;-9.12;0.311;0.195;-0.084;-0.278;-0.007;-0.101;0.031;1.3;-2.2;30.5;49.77;4974;2018-04-16 22:54:42:046
-3.407;-9.167;0.019;-3.593;-9.12;0.311;0.195;-0.084;-0.278;-0.017;-0.099;0.026;1.3;-2.2;30.5;49.77;4984;2018-04-16 22:54:42:056
-3.407;-9.167;0.019;-3.593;-9.12;0.311;0.195;-0.084;-0.278;-0.012;-0.092;0.023;1.3;-2.2;30.5;49.77;4994;2018-04-16 22:54:42:066
-3.423;-9.222;-0.095;-3.594;-9.119;0.312;0.172;-0.104;-0.406;-0.016;-0.086;0.022;1.3;-2.3;30.5;49.77;5005;2018-04-16 22:54:42:077
-3.44;-9.341;-0.176;-3.596;-9.118;0.308;0.155;-0.267;-0.503;-0.032;-0.068;0.021;1.3;-2.3;30.5;49.77;5014;2018-04-16 22:54:42:086
-3.44;-9.341;-0.176;-3.596;-9.118;0.308;0.155;-0.267;-0.503;-0.032;-0.068;0.021;1.3;-2.3;30.5;49.77;5023;2018-04-16 22:54:42:095
-3.395;-9.431;-0.287;-3.596;-9.118;0.295;0.238;-0.302;-0.606;-0.053;-0.021;0.018;1.2;-2.3;30.5;49.77;5034;2018-04-16 22:54:42:106
-3.326;-9.352;-0.347;-3.597;-9.118;0.295;0.238;-0.302;-0.606;-0.09;0.032;0.021;1.2;-2.3;30.5;49.77;5044;2018-04-16 22:54:42:116
-3.326;-9.352;-0.347;-3.598;-9.119;0.266;0.323;-0.165;-0.562;-0.122;0.075;0.018;1.2;-2.3;30.6;49.77;5054;2018-04-16 22:54:42:126
-3.232;-9.193;-0.249;-3.598;-9.119;0.266;0.323;-0.165;-0.562;-0.155;0.123;0.013;1.2;-2.3;30.6;49.77;5064;2018-04-16 22:54:42:136
-3.232;-9.193;-0.249;-3.597;-9.12;0.219;0.374;0.004;-0.428;-0.191;0.175;0.01;1.2;-2.3;30.7;49.77;5074;2018-04-16 22:54:42:146
-3.22;-9.055;-0.215;-3.597;-9.12;0.219;0.374;0.004;-0.428;-0.214;0.219;0.005;1.2;-2.3;30.7;49.77;5084;2018-04-16 22:54:42:156
-3.242;-9.008;-0.28;-3.596;-9.122;0.155;0.354;0.114;-0.436;-0.238;0.246;-0.002;1.1;-2.4;30.8;49.77;5095;2018-04-16 22:54:42:167
-3.242;-9.008;-0.28;-3.596;-9.122;0.155;0.354;0.114;-0.436;-0.238;0.246;-0.002;1.1;-2.4;30.8;49.77;5104;2018-04-16 22:54:42:176
-3.275;-9.019;-0.438;-3.591;-9.125;0.087;0.322;0.075;-0.619;-0.26;0.232;-0.01;1.1;-2.4;30.8;49.77;5113;2018-04-16 22:54:42:185
-3.293;-9.127;-0.67;-3.588;-9.126;0.054;0.301;0.055;-0.625;-0.275;0.176;-0.022;1.1;-2.5;30.8;49.81;5124;2018-04-16 22:54:42:196
-3.293;-9.127;-0.67;-3.588;-9.126;0.054;0.301;0.055;-0.625;-0.275;0.176;-0.022;1.1;-2.5;30.8;49.81;5134;2018-04-16 22:54:42:206
-3.278;-9.315;-0.979;-3.58;-9.13;-0.017;0.302;-0.185;-0.963;-0.287;0.13;-0.028;1.0;-2.6;30.9;49.81;5145;2018-04-16 22:54:42:217
-3.278;-9.315;-0.979;-3.58;-9.13;-0.017;0.302;-0.185;-0.963;-0.321;0.095;-0.042;1.0;-2.6;30.9;49.81;5154;2018-04-16 22:54:42:226
-3.181;-9.359;-1.08;-3.58;-9.13;-0.017;0.302;-0.185;-0.963;-0.356;0.122;-0.051;1.0;-2.6;30.9;49.81;5164;2018-04-16 22:54:42:236
-3.181;-9.359;-1.08;-3.567;-9.134;-0.099;0.398;-0.202;-0.986;-0.356;0.122;-0.051;0.9;-2.7;30.9;49.81;5174;2018-04-16 22:54:42:246
-3.193;-9.37;-1.113;-3.546;-9.141;-0.21;0.376;-0.194;-0.864;-0.417;0.233;-0.077;0.9;-2.8;30.8;49.81;5184;2018-04-16 22:54:42:256
-3.177;-9.327;-1.01;-3.546;-9.141;-0.21;0.376;-0.194;-0.864;-0.472;0.404;-0.103;0.9;-2.8;30.8;49.81;5194;2018-04-16 22:54:42:266
-3.177;-9.327;-1.01;-3.53;-9.145;-0.284;0.36;-0.147;-0.608;-0.48;0.724;-0.153;0.8;-2.8;30.8;49.81;5204;2018-04-16 22:54:42:276
-3.191;-9.227;-0.602;-3.491;-9.154;-0.425;0.314;-0.159;-0.234;-0.42;0.88;-0.178;0.8;-2.9;30.9;49.81;5214;2018-04-16 22:54:42:286
-3.163;-9.385;-0.945;-3.491;-9.154;-0.425;0.314;-0.159;-0.234;-0.359;0.963;-0.203;0.8;-2.9;30.9;49.81;5224;2018-04-16 22:54:42:296
-3.163;-9.385;-0.945;-3.491;-9.154;-0.425;0.314;-0.159;-0.234;-0.359;0.963;-0.203;0.8;-2.9;30.9;49.81;5234;2018-04-16 22:54:42:306
-3.413;-9.568;-0.786;-3.438;-9.167;-0.558;0.22;-0.262;-0.379;-0.318;0.976;-0.233;0.7;-3.0;30.8;49.81;5244;2018-04-16 22:54:42:316
-3.413;-9.568;-0.786;-3.438;-9.167;-0.558;0.22;-0.262;-0.379;-0.318;0.976;-0.233;0.7;-3.0;30.8;49.81;5254;2018-04-16 22:54:42:326
-3.537;-9.641;-0.679;-3.38;-9.181;-0.677;-0.157;-0.461;-0.002;-0.269;1.008;-0.243;0.6;-3.1;30.8;49.81;5264;2018-04-16 22:54:42:336
-3.537;-9.641;-0.679;-3.38;-9.181;-0.677;-0.157;-0.461;-0.002;-0.269;1.008;-0.243;0.6;-3.1;30.8;49.81;5274;2018-04-16 22:54:42:346
-3.613;-9.814;-1.069;-3.322;-9.192;-0.803;-0.291;-0.622;-0.266;-0.296;1.134;-0.23;0.4;-3.2;30.7;49.81;5284;2018-04-16 22:54:42:356
-3.613;-9.774;-1.095;-3.255;-9.202;-0.946;-0.107;-0.572;-0.149;-0.32;1.235;-0.236;0.2;-3.3;30.7;49.81;5294;2018-04-16 22:54:42:366
-3.361;-9.774;-1.095;-3.255;-9.202;-0.946;-0.107;-0.572;-0.149;-0.299;1.334;-0.264;0.2;-3.3;30.7;49.81;5304;2018-04-16 22:54:42:376
-3.191;-9.319;-1.026;-3.17;-9.217;-1.082;-0.107;-0.021;-0.111;-0.202;1.515;-0.321;0.0;-3.5;30.8;49.81;5314;2018-04-16 22:54:42:386
-3.191;-9.319;-1.026;-3.17;-9.217;-1.082;-0.107;-0.021;-0.111;-0.149;1.578;-0.364;0.0;-3.5;30.8;49.81;5324;2018-04-16 22:54:42:396
-3.224;-9.086;-1.581;-3.17;-9.217;-1.082;-0.107;-0.021;-0.111;-0.149;1.578;-0.364;0.0;-3.5;30.8;49.81;5334;2018-04-16 22:54:42:406
-3.226;-8.997;-1.636;-3.065;-9.236;-1.211;-0.114;0.245;-0.483;-0.128;1.586;-0.391;-0.3;-3.6;30.7;49.81;5344;2018-04-16 22:54:42:416
-3.506;-9.108;-1.602;-2.956;-9.255;-1.332;-0.551;0.148;-0.27;-0.154;1.493;-0.401;-0.7;-3.8;30.8;49.81;5354;2018-04-16 22:54:42:426
-3.506;-9.108;-1.602;-2.956;-9.255;-1.332;-0.551;0.148;-0.27;-0.154;1.493;-0.401;-0.7;-3.8;30.8;49.81;5364;2018-04-16 22:54:42:436
-3.724;-9.34;-1.656;-2.956;-9.255;-1.332;-0.551;0.148;-0.27;-0.279;1.079;-0.307;-0.7;-3.8;30.8;49.81;5375;2018-04-16 22:54:42:447
-3.194;-9.722;-2.421;-2.872;-9.264;-1.447;-0.733;-0.171;-0.457;-0.375;0.512;-0.187;-1.1;-4.0;30.7;49.81;5384;2018-04-16 22:54:42:456
-3.194;-9.722;-2.421;-2.872;-9.261;-1.541;0.185;-0.608;-0.719;-0.443;0.079;-0.138;-1.6;-4.2;30.7;49.81;5394;2018-04-16 22:54:42:466
-2.492;-9.918;-2.145;-2.834;-9.261;-1.541;0.185;-0.608;-0.719;-0.443;0.079;-0.138;-1.6;-4.2;30.7;49.81;5404;2018-04-16 22:54:42:476
-1.882;-10.047;-1.963;-2.803;-9.255;-1.628;0.921;-0.792;-0.336;-0.501;-0.101;-0.159;-2.0;-4.3;30.6;49.81;5414;2018-04-16 22:54:42:486
-1.882;-10.047;-1.963;-2.803;-9.255;-1.628;0.921;-0.792;-0.336;-0.478;0.007;-0.213;-2.0;-4.3;30.6;49.81;5424;2018-04-16 22:54:42:496
-1.984;-10.105;-1.817;-2.803;-9.255;-1.628;0.921;-0.792;-0.336;-0.426;0.142;-0.266;-2.0;-4.3;30.6;49.81;5434;2018-04-16 22:54:42:506
-2.049;-10.019;-1.726;-2.746;-9.257;-1.714;0.762;-0.848;-0.104;-0.393;0.208;-0.286;-2.5;-4.5;30.5;49.81;5444;2018-04-16 22:54:42:516
-2.049;-10.019;-1.726;-2.746;-9.257;-1.714;0.762;-0.848;-0.104;-0.393;0.208;-0.286;-2.5;-4.5;30.5;49.81;5454;2018-04-16 22:54:42:526
-2.541;-9.345;-1.895;-2.671;-9.265;-1.79;0.129;-0.08;-0.105;-0.279;0.419;-0.329;-2.9;-4.7;30.4;51.26;5464;2018-04-16 22:54:42:536
-2.841;-8.917;-2.125;-2.671;-9.265;-1.79;0.129;-0.08;-0.105;-0.275;0.4;-0.334;-2.9;-4.7;30.4;51.26;5474;2018-04-16 22:54:42:546
-2.903;-8.594;-2.271;-2.6;-9.27;-1.864;-0.333;0.457;-0.316;-0.294;0.202;-0.292;-3.4;-4.8;30.2;51.26;5484;2018-04-16 22:54:42:556
-2.903;-8.594;-2.271;-2.6;-9.27;-1.864;-0.333;0.457;-0.316;-0.294;0.202;-0.292;-3.4;-4.8;30.2;51.26;5494;2018-04-16 22:54:42:566
-2.891;-8.492;-2.134;-2.544;-9.272;-1.931;-0.347;0.78;-0.204;-0.316;0.077;-0.288;-3.8;-5.0;30.3;51.26;5504;2018-04-16 22:54:42:576
-2.891;-8.492;-2.134;-2.544;-9.272;-1.931;-0.347;0.78;-0.204;-0.345;-0.004;-0.316;-3.8;-5.0;30.3;51.26;5514;2018-04-16 22:54:42:586
-3.136;-8.283;-2.041;-2.49;-9.273;-1.995;-0.578;0.94;-0.02;-0.353;-0.012;-0.314;-4.3;-5.1;30.2;51.26;5524;2018-04-16 22:54:42:596
-3.136;-8.283;-2.041;-2.49;-9.273;-1.995;-0.578;0.94;-0.02;-0.353;-0.012;-0.314;-4.3;-5.1;30.2;51.26;5534;2018-04-16 22:54:42:606
-3.226;-8.078;-2.083;-2.446;-9.269;-2.065;-0.78;1.191;-0.018;-0.381;-0.032;-0.238;-4.7;-5.3;30.2;51.26;5545;2018-04-16 22:54:42:617
-3.135;-7.897;-2.228;-2.418;-9.26;-2.137;-0.668;1.418;-0.151;-0.385;-0.018;-0.182;-5.1;-5.5;30.2;51.26;5554;2018-04-16 22:54:42:626
-2.926;-7.731;-2.327;-2.418;-9.26;-2.137;-0.668;1.418;-0.151;-0.398;0.022;-0.11;-5.1;-5.5;30.2;51.26;5564;2018-04-16 22:54:42:636
-2.926;-7.731;-2.327;-2.403;-9.247;-2.21;-0.51;1.537;-0.03;-0.382;0.023;-0.066;-5.4;-5.7;30.1;51.26;5574;2018-04-16 22:54:42:646
-2.926;-7.731;-2.327;-2.403;-9.247;-2.21;-0.51;1.537;-0.03;-0.382;0.023;-0.066;-5.4;-5.7;30.1;51.26;5584;2018-04-16 22:54:42:656
-2.762;-7.645;-2.216;-2.403;-9.247;-2.21;-0.51;1.537;-0.03;-0.335;0.044;-0.021;-5.4;-5.7;30.1;51.26;5594;2018-04-16 22:54:42:666
-2.661;-7.599;-2.304;-2.397;-9.233;-2.274;-0.264;1.634;-0.03;-0.318;0.057;-0.006;-5.6;-5.9;29.9;51.26;5604;2018-04-16 22:54:42:676
-2.612;-7.561;-2.514;-2.402;-9.218;-2.329;-0.21;1.657;-0.185;-0.281;0.077;0.039;-5.9;-6.0;29.8;51.26;5614;2018-04-16 22:54:42:686
-2.612;-7.561;-2.514;-2.402;-9.218;-2.329;-0.21;1.657;-0.185;-0.261;0.064;0.075;-5.9;-6.0;29.8;51.26;5624;2018-04-16 22:54:42:696
-2.595;-7.588;-2.684;-2.418;-9.202;-2.377;-0.155;1.53;-0.496;-0.237;0.048;0.109;-6.1;-6.2;29.6;51.26;5634;2018-04-16 22:54:42:706
-2.503;-7.773;-2.948;-2.418;-9.202;-2.377;-0.155;1.53;-0.496;-0.237;0.048;0.109;-6.1;-6.2;29.6;51.26;5644;2018-04-16 22:54:42:716
-2.503;-8.264;-3.042;-2.446;-9.185;-2.414;0.328;0.921;-0.628;-0.198;-0.012;0.15;-6.2;-6.4;29.5;51.26;5654;2018-04-16 22:54:42:726
-2.118;-8.264;-3.042;-2.446;-9.185;-2.414;0.328;0.921;-0.628;-0.132;-0.07;0.172;-6.2;-6.4;29.5;51.26;5664;2018-04-16 22:54:42:736
-1.466;-8.724;-2.976;-2.446;-9.185;-2.414;0.328;0.921;-0.628;-0.132;-0.07;0.172;-6.2;-6.4;29.5;51.26;5674;2018-04-16 22:54:42:746
-0.788;-8.971;-3.008;-2.472;-9.172;-2.437;1.258;0.294;-0.593;-0.093;-0.053;0.16;-6.3;-6.5;29.5;51.26;5684;2018-04-16 22:54:42:756
-0.788;-8.971;-3.008;-2.474;-9.168;-2.449;1.959;0.252;-0.574;-0.035;-0.012;0.088;-6.3;-6.7;29.3;51.26;5694;2018-04-16 22:54:42:766
-0.408;-8.86;-3.026;-2.474;-9.168;-2.449;1.959;0.252;-0.574;0.007;0.028;0.018;-6.3;-6.7;29.3;51.26;5704;2018-04-16 22:54:42:776
-0.408;-8.86;-3.026;-2.474;-9.168;-2.449;1.959;0.252;-0.574;0.007;0.028;0.018;-6.3;-6.7;29.3;51.26;5714;2018-04-16 22:54:42:786
-0.045;-8.651;-2.884;-2.457;-9.175;-2.442;2.411;0.523;-0.442;0.084;-0.033;-0.048;-6.3;-6.9;29.3;51.26;5724;2018-04-16 22:54:42:796
-0.045;-8.651;-2.884;-2.457;-9.175;-2.442;2.411;0.523;-0.442;0.084;-0.033;-0.048;-6.3;-6.9;29.3;51.26;5734;2018-04-16 22:54:42:806
0.084;-8.759;-2.567;-2.454;-9.187;-2.399;2.538;0.427;-0.168;0.189;-0.379;-0.017;-6.4;-7.0;29.3;51.26;5743;2018-04-16 22:54:42:815
0.084;-8.759;-2.567;-2.454;-9.187;-2.399;2.538;0.427;-0.168;0.203;-0.605;0.045;-6.4;-7.0;29.3;51.26;5754;2018-04-16 22:54:42:826
-0.194;-8.668;-2.55;-2.487;-9.194;-2.334;2.293;0.526;-0.216;0.138;-0.789;0.075;-6.4;-7.1;29.3;51.26;5764;2018-04-16 22:54:42:836
-0.194;-8.668;-2.55;-2.487;-9.194;-2.334;2.293;0.526;-0.216;0.138;-0.789;0.075;-6.4;-7.1;29.3;51.26;5774;2018-04-16 22:54:42:846
-0.606;-8.645;-2.665;-2.531;-9.197;-2.273;1.926;0.552;-0.391;0.101;-0.839;0.07;-6.3;-7.2;29.4;53.63;5784;2018-04-16 22:54:42:856
-1.275;-9.177;-3.02;-2.571;-9.198;-2.224;1.493;0.14;-0.729;0.059;-0.883;0.075;-6.2;-7.3;29.4;53.63;5794;2018-04-16 22:54:42:866
-1.275;-9.177;-3.02;-2.571;-9.198;-2.224;1.493;0.14;-0.729;0.059;-0.883;0.075;-6.2;-7.3;29.4;53.63;5803;2018-04-16 22:54:42:875
-2.38;-9.723;-2.86;-2.623;-9.196;-2.173;0.243;-0.527;-0.687;0.046;-0.881;0.079;-6.2;-7.3;29.2;53.63;5814;2018-04-16 22:54:42:886
-4.002;-11.129;-2.83;-2.623;-9.196;-2.173;0.243;-0.527;-0.687;0.037;-0.8;0.099;-6.2;-7.3;29.2;53.63;5824;2018-04-16 22:54:42:896
-4.002;-11.129;-2.83;-2.623;-9.196;-2.173;0.243;-0.527;-0.687;0.022;-0.673;0.119;-6.2;-7.3;29.2;53.63;5833;2018-04-16 22:54:42:905
-4.867;-13.157;-4.099;-2.671;-9.191;-2.134;-1.853;-2.945;-1.096;0.017;-0.505;-0.007;-6.1;-7.4;29.1;53.63;5844;2018-04-16 22:54:42:916
-4.867;-13.712;-4.713;-2.673;-9.197;-2.105;-1.829;-4.514;-2.608;0.042;-0.378;-0.156;-5.9;-7.4;29.1;53.63;5854;2018-04-16 22:54:42:926
-4.502;-13.712;-4.713;-2.673;-9.197;-2.105;-1.829;-4.514;-2.608;0.042;-0.378;-0.156;-5.9;-7.4;29.1;53.63;5864;2018-04-16 22:54:42:936
-2.697;-13.154;-5.272;-2.591;-9.22;-2.111;-0.241;-3.291;-3.245;0.042;0.158;-0.402;-5.8;-7.4;29.1;53.63;5874;2018-04-16 22:54:42:946
-3.736;-10.236;-4.767;-2.591;-9.22;-2.111;-0.241;-3.291;-3.245;-0.049;0.69;-0.505;-5.8;-7.4;29.1;53.63;5884;2018-04-16 22:54:42:956
-3.736;-10.236;-4.767;-2.591;-9.22;-2.111;-0.241;-3.291;-3.245;-0.049;0.69;-0.505;-5.6;-7.3;29.2;53.63;5894;2018-04-16 22:54:42:966
-3.719;-6.027;-2.531;-2.491;-9.232;-2.177;-1.313;2.112;-0.985;-0.148;0.827;-0.243;-5.6;-7.3;29.2;53.63;5904;2018-04-16 22:54:42:976
-3.359;-3.448;-0.005;-2.458;-9.232;-2.213;-0.901;5.784;2.208;-0.127;0.553;-0.109;-5.6;-7.3;29.3;53.63;5914;2018-04-16 22:54:42:986
-3.359;-3.448;-0.005;-2.458;-9.232;-2.213;-0.901;5.784;2.208;0.01;0.112;-0.071;-5.6;-7.3;29.3;53.63;5924;2018-04-16 22:54:42:996
-3.989;-4.714;1.349;-2.464;-9.244;-2.155;-1.792;3.788;3.273;0.407;-0.233;0.039;-5.5;-7.3;29.2;53.63;5934;2018-04-16 22:54:43:006
-3.989;-4.714;1.349;-2.464;-9.244;-2.155;-1.792;3.788;3.273;0.637;-0.487;0.188;-5.5;-7.3;29.2;53.63;5944;2018-04-16 22:54:43:016
-4.535;-7.423;0.066;-2.464;-9.244;-2.155;-1.792;3.788;3.273;0.637;-0.487;0.188;-5.5;-7.3;29.2;53.63;5954;2018-04-16 22:54:43:026
-4.378;-9.436;-0.414;-2.543;-9.258;-1.997;-1.992;1.835;2.062;0.716;-0.679;0.345;-5.4;-7.2;29.1;53.63;5963;2018-04-16 22:54:43:035
-3.976;-11.45;1.269;-2.658;-9.257;-1.847;-1.318;-2.193;3.116;0.582;-0.431;0.502;-5.2;-7.0;29.1;53.63;5974;2018-04-16 22:54:43:046
-3.976;-11.45;1.269;-2.658;-9.257;-1.847;-1.318;-2.193;3.116;0.582;-0.431;0.502;-5.2;-7.0;29.1;53.63;5984;2018-04-16 22:54:43:056
-3.875;-11.109;1.385;-2.736;-9.257;-1.73;-1.151;-1.585;2.733;0.571;-0.23;0.38;-5.0;-6.8;29.1;53.63;5994;2018-04-16 22:54:43:066
-3.721;-10.461;0.408;-2.736;-9.257;-1.73;-1.151;-1.585;2.733;0.547;-0.018;0.291;-5.0;-6.8;29.1;53.63;6004;2018-04-16 22:54:43:076
-3.721;-10.461;0.408;-2.76;-9.258;-1.688;-0.691;-0.775;1.376;0.547;-0.018;0.291;-4.9;-6.7;29.2;53.63;6014;2018-04-16 22:54:43:086
-2.733;-9.245;-1.835;-2.815;-9.25;-1.639;0.082;0.005;-0.197;0.443;0.305;0.341;-4.7;-6.5;29.2;53.63;6024;2018-04-16 22:54:43:096
-2.733;-9.245;-1.835;-2.815;-9.25;-1.639;0.082;0.005;-0.197;0.369;0.15;0.401;-4.6;-6.4;29.2;53.63;6034;2018-04-16 22:54:43:106
-2.215;-8.641;-3.256;-2.851;-9.243;-1.614;0.636;0.603;-1.642;0.369;0.15;0.401;-4.6;-6.4;29.2;53.63;6044;2018-04-16 22:54:43:116
-2.215;-8.641;-3.256;-2.851;-9.243;-1.614;0.636;0.62;-0.258;0.415;-0.158;0.354;-4.5;-6.2;29.2;53.63;6054;2018-04-16 22:54:43:126
-3.46;-8.617;-1.779;-2.923;-9.236;-1.521;-0.536;0.62;-0.258;0.454;-0.635;0.253;-4.5;-6.2;29.2;53.63;6064;2018-04-16 22:54:43:136
-3.46;-8.617;-1.779;-2.923;-9.236;-1.521;-0.536;0.62;-0.258;0.454;-0.635;0.253;-4.5;-6.2;29.2;53.63;6074;2018-04-16 22:54:43:146
-4.851;-9.035;-0.281;-3.0;-9.232;-1.396;-1.851;0.197;1.115;0.396;-0.739;0.235;-4.3;-5.9;29.1;53.63;6084;2018-04-16 22:54:43:156
-4.993;-9.038;0.136;-3.0;-9.232;-1.396;-1.851;0.197;1.115;0.265;-0.834;0.26;-4.3;-5.9;29.1;53.63;6094;2018-04-16 22:54:43:166
-4.755;-8.839;0.233;-3.079;-9.221;-1.287;-1.864;0.295;1.485;0.215;-0.888;0.277;-4.2;-5.7;28.9;54.55;6104;2018-04-16 22:54:43:176
-4.755;-8.839;0.233;-3.164;-9.206;-1.182;-1.48;0.355;1.467;0.211;-0.882;0.303;-4.0;-5.4;28.9;54.55;6114;2018-04-16 22:54:43:186
-4.028;-9.141;0.605;-3.164;-9.206;-1.182;-1.48;0.355;1.467;0.211;-0.882;0.303;-4.0;-5.4;28.9;54.55;6124;2018-04-16 22:54:43:196
-4.028;-9.141;0.605;-3.164;-9.206;-1.182;-1.48;0.355;1.467;0.235;-0.723;0.345;-4.0;-5.4;28.9;54.55;6133;2018-04-16 22:54:43:205
-3.388;-9.287;0.461;-3.246;-9.191;-1.077;-0.141;-0.096;1.538;0.283;-0.61;0.329;-3.8;-5.1;29.0;54.55;6144;2018-04-16 22:54:43:216
-2.994;-9.713;0.098;-3.31;-9.18;-0.969;0.414;-0.596;0.976;0.358;-0.529;0.301;-3.7;-4.8;29.0;54.55;6153;2018-04-16 22:54:43:225
-2.994;-9.713;0.098;-3.31;-9.18;-0.969;0.414;-0.596;0.976;0.358;-0.529;0.301;-3.7;-4.8;29.0;54.55;6164;2018-04-16 22:54:43:236
-2.577;-9.795;-0.157;-3.332;-9.178;-0.912;0.755;-0.617;0.755;0.486;-0.464;0.255;-3.6;-4.7;29.0;54.55;6174;2018-04-16 22:54:43:246
-2.496;-9.796;-0.265;-3.369;-9.177;-0.776;0.873;-0.619;0.512;0.555;-0.475;0.176;-3.4;-4.4;28.9;54.55;6184;2018-04-16 22:54:43:256
-2.496;-9.796;-0.265;-3.369;-9.177;-0.776;0.873;-0.619;0.512;0.546;-0.484;0.204;-3.4;-4.4;28.9;54.55;6193;2018-04-16 22:54:43:265
-2.085;-9.493;-0.247;-3.401;-9.175;-0.643;1.343;-0.285;0.383;0.546;-0.484;0.204;-3.2;-4.1;28.9;54.55;6204;2018-04-16 22:54:43:276
-2.006;-9.402;-0.36;-3.401;-9.175;-0.643;1.343;-0.285;0.383;0.484;-0.49;0.214;-3.2;-4.1;28.9;54.55;6214;2018-04-16 22:54:43:286
-2.006;-9.402;-0.36;-3.434;-9.17;-0.527;1.597;-0.069;0.059;0.432;-0.525;0.224;-2.9;-3.7;28.8;54.55;6224;2018-04-16 22:54:43:296
-1.919;-9.25;-0.475;-3.434;-9.17;-0.527;1.597;-0.069;0.059;0.382;-0.597;0.178;-2.9;-3.7;28.8;54.55;6234;2018-04-16 22:54:43:306
-2.637;-9.406;-0.385;-3.446;-9.169;-0.467;1.297;-0.123;-0.004;0.359;-0.635;0.138;-2.7;-3.6;28.8;54.55;6244;2018-04-16 22:54:43:316
-2.903;-9.501;-0.126;-3.454;-9.171;-0.363;0.551;-0.33;0.238;0.258;-0.773;0.027;-2.4;-3.2;28.8;54.55;6254;2018-04-16 22:54:43:326
-2.903;-9.501;-0.126;-3.454;-9.171;-0.363;0.551;-0.33;0.238;0.236;-0.794;0.001;-2.4;-3.2;28.8;54.55;6264;2018-04-16 22:54:43:336
-2.903;-9.501;-0.126;-3.454;-9.171;-0.363;0.551;-0.33;0.238;0.236;-0.794;0.001;-2.4;-3.2;28.8;54.55;6274;2018-04-16 22:54:43:346
-3.522;-9.549;0.269;-3.456;-9.174;-0.263;-0.066;-0.376;0.533;0.242;-0.761;-0.01;-2.1;-3.0;28.8;54.55;6284;2018-04-16 22:54:43:356
-3.777;-9.422;0.413;-3.456;-9.174;-0.263;-0.066;-0.376;0.533;0.301;-0.6;-0.032;-2.1;-3.0;28.8;54.55;6294;2018-04-16 22:54:43:366
-3.715;-9.255;0.435;-3.455;-9.177;-0.161;-0.341;-0.191;0.598;0.4;-0.315;-0.024;-1.9;-2.8;28.8;54.55;6304;2018-04-16 22:54:43:376
-3.715;-9.255;0.435;-3.452;-9.179;-0.064;-0.152;0.114;0.44;0.436;-0.188;-0.026;-1.6;-2.5;28.6;54.55;6314;2018-04-16 22:54:43:386
-3.521;-8.92;0.274;-3.452;-9.179;-0.064;-0.152;0.114;0.44;0.469;-0.09;-0.023;-1.6;-2.5;28.6;54.55;6324;2018-04-16 22:54:43:396
-3.521;-8.92;0.274;-3.452;-9.179;-0.064;-0.152;0.114;0.44;0.469;-0.09;-0.023;-1.6;-2.5;28.6;54.55;6334;2018-04-16 22:54:43:406
-3.247;-8.867;0.158;-3.45;-9.18;0.031;0.051;0.301;0.176;0.506;-0.016;-0.012;-1.4;-2.3;28.6;54.55;6344;2018-04-16 22:54:43:416
-3.247;-8.867;0.158;-3.45;-9.18;0.031;0.051;0.301;0.176;0.539;0.081;0.002;-1.4;-2.3;28.6;54.55;6354;2018-04-16 22:54:43:426
-3.044;-8.89;0.119;-3.449;-9.179;0.124;0.405;0.289;-0.006;0.54;0.11;0.007;-1.0;-2.0;28.6;54.55;6364;2018-04-16 22:54:43:436
-3.044;-8.89;0.119;-3.449;-9.179;0.124;0.405;0.289;-0.006;0.501;0.186;0.031;-1.0;-2.0;28.6;54.55;6374;2018-04-16 22:54:43:446
-2.65;-8.975;0.045;-3.452;-9.177;0.202;0.801;0.202;-0.156;0.409;0.225;0.057;-0.8;-1.7;28.7;54.55;6384;2018-04-16 22:54:43:456
-2.65;-8.975;0.045;-3.452;-9.177;0.202;0.801;0.202;-0.156;0.409;0.225;0.057;-0.8;-1.7;28.7;54.55;6394;2018-04-16 22:54:43:466
-2.476;-9.079;0.195;-3.458;-9.173;0.254;0.982;0.094;-0.059;0.343;0.221;0.068;-0.5;-1.4;28.7;54.55;6404;2018-04-16 22:54:43:476
-2.441;-9.102;0.297;-3.458;-9.173;0.254;0.982;0.094;-0.059;0.283;0.177;0.086;-0.5;-1.2;28.7;54.55;6414;2018-04-16 22:54:43:486
-2.484;-9.08;0.424;-3.467;-9.169;0.295;1.023;0.069;0.036;0.315;0.062;0.098;-0.3;-1.2;28.7;53.46;6424;2018-04-16 22:54:43:496
-2.484;-9.08;0.424;-3.467;-9.169;0.295;1.023;0.069;0.036;0.315;0.062;0.098;-0.3;-1.2;28.7;53.46;6434;2018-04-16 22:54:43:506
-2.527;-9.019;0.467;-3.479;-9.162;0.36;0.952;0.143;0.107;0.39;-0.027;0.103;-0.1;-0.9;28.6;53.46;6444;2018-04-16 22:54:43:516
-2.765;-9.056;0.448;-3.491;-9.153;0.461;0.635;0.137;-0.04;0.509;-0.119;0.097;0.0;-0.6;28.6;53.46;6454;2018-04-16 22:54:43:526
-2.928;-8.956;0.412;-3.491;-9.153;0.461;0.635;0.137;-0.04;0.556;-0.119;0.101;0.0;-0.6;28.6;53.46;6464;2018-04-16 22:54:43:536
-2.928;-8.956;0.412;-3.491;-9.153;0.461;0.635;0.137;-0.04;0.556;-0.119;0.101;0.0;-0.6;28.6;53.46;6474;2018-04-16 22:54:43:546
-3.292;-8.835;0.33;-3.508;-9.14;0.571;0.377;0.256;-0.212;0.589;-0.067;0.114;0.1;-0.4;28.6;53.46;6484;2018-04-16 22:54:43:556
-3.292;-8.835;0.33;-3.508;-9.14;0.571;0.377;0.256;-0.212;0.589;-0.067;0.114;0.1;-0.4;28.6;53.46;6494;2018-04-16 22:54:43:566
-3.731;-9.067;0.175;-3.533;-9.121;0.7;-0.198;0.054;-0.525;0.859;-0.103;0.144;0.2;-0.1;28.6;53.46;6504;2018-04-16 22:54:43:576
-3.9;-9.3;0.122;-3.562;-9.096;0.863;-0.291;-0.235;-0.756;0.933;-0.098;0.167;0.3;0.1;28.6;53.46;6514;2018-04-16 22:54:43:586
-3.657;-9.248;0.043;-3.562;-9.096;0.863;-0.291;-0.235;-0.756;0.942;-0.035;0.203;0.3;0.1;28.6;53.46;6523;2018-04-16 22:54:43:595
-3.657;-9.248;0.043;-3.562;-9.096;0.863;-0.291;-0.235;-0.756;0.942;-0.035;0.203;0.3;0.1;28.6;53.46;6534;2018-04-16 22:54:43:606
-3.375;-9.108;-0.055;-3.6;-9.064;1.022;0.168;-0.036;-1.055;0.92;0.053;0.224;0.4;0.4;28.6;53.46;6544;2018-04-16 22:54:43:616
-3.375;-9.108;-0.055;-3.6;-9.064;1.022;0.168;-0.036;-1.055;0.892;0.143;0.239;0.4;0.4;28.6;53.46;6555;2018-04-16 22:54:43:627
-2.862;-8.976;-0.251;-3.642;-9.031;1.16;0.596;-0.023;-1.33;0.839;0.181;0.236;0.4;0.8;28.6;53.46;6564;2018-04-16 22:54:43:636
-2.221;-8.8;-0.53;-3.681;-8.997;1.292;1.264;0.169;-1.744;0.837;0.121;0.216;0.5;1.2;28.6;53.46;6574;2018-04-16 22:54:43:646
-2.221;-8.8;-0.53;-3.681;-8.997;1.292;1.264;0.169;-1.744;0.909;-0.078;0.143;0.5;1.2;28.6;53.46;6584;2018-04-16 22:54:43:656
-1.913;-9.011;-0.596;-3.681;-8.997;1.292;1.796;-0.186;-2.003;0.904;-0.178;0.073;0.5;1.7;28.6;53.46;6594;2018-04-16 22:54:43:666
-1.923;-9.366;-0.475;-3.687;-8.97;1.452;1.796;-0.186;-2.003;0.904;-0.178;0.073;0.5;1.7;28.6;53.46;6604;2018-04-16 22:54:43:676
-1.923;-9.366;-0.475;-3.664;-8.958;1.579;1.611;-0.42;-1.951;0.688;-0.134;-0.039;0.5;2.1;28.6;53.46;6614;2018-04-16 22:54:43:686
-2.158;-9.286;-0.33;-3.664;-8.958;1.579;1.611;-0.42;-1.951;0.688;-0.134;-0.039;0.5;2.1;28.6;53.46;6624;2018-04-16 22:54:43:696
-2.674;-9.044;0.016;-3.637;-8.953;1.667;0.963;-0.091;-1.651;0.562;0.001;-0.108;0.5;2.5;28.6;53.46;6634;2018-04-16 22:54:43:706
-2.674;-9.044;0.016;-3.637;-8.953;1.667;0.963;-0.091;-1.651;0.615;0.261;-0.161;0.5;2.5;28.6;53.46;6643;2018-04-16 22:54:43:715
-3.425;-9.219;0.242;-3.637;-8.953;1.667;0.963;-0.091;-1.651;0.661;0.546;-0.171;0.5;2.5;28.6;53.46;6653;2018-04-16 22:54:43:725
-3.873;-9.856;0.239;-3.62;-8.947;1.739;-0.046;-0.466;-1.45;0.626;0.908;-0.164;0.4;2.8;28.5;53.46;6664;2018-04-16 22:54:43:736
-3.873;-9.856;0.239;-3.62;-8.947;1.739;-0.046;-0.466;-1.45;0.626;0.908;-0.164;0.4;2.8;28.5;53.46;6674;2018-04-16 22:54:43:746
-3.912;-10.324;0.087;-3.632;-8.938;1.757;-0.28;-1.386;-1.67;0.505;1.268;-0.137;0.4;3.2;28.5;53.46;6684;2018-04-16 22:54:43:756
-3.912;-10.324;0.087;-3.632;-8.938;1.757;-0.28;-1.386;-1.67;0.505;1.268;-0.137;0.4;3.2;28.5;53.46;6694;2018-04-16 22:54:43:766
-2.801;-10.9;-0.73;-3.677;-8.931;1.699;0.876;-1.968;-2.429;0.205;1.41;0.006;0.3;3.7;28.4;53.46;6703;2018-04-16 22:54:43:775
-1.607;-11.097;-1.006;-3.701;-8.933;1.634;2.316;-2.39;-2.536;-0.02;0.839;-0.001;0.2;4.2;28.3;53.46;6714;2018-04-16 22:54:43:786
-1.123;-11.807;-0.606;-3.701;-8.933;1.634;2.316;-2.39;-2.536;-0.343;0.057;-0.084;0.2;4.2;28.3;53.46;6724;2018-04-16 22:54:43:796
-1.123;-11.807;-0.606;-3.674;-8.956;1.568;2.681;-3.07;-2.013;-0.547;-0.45;-0.128;0.0;4.6;28.2;53.46;6734;2018-04-16 22:54:43:806
-0.582;-12.474;-0.116;-3.674;-8.956;1.568;2.681;-3.07;-2.013;-0.547;-0.45;-0.128;0.0;4.6;28.2;53.46;6744;2018-04-16 22:54:43:816
-0.085;-12.869;0.251;-3.597;-8.996;1.515;3.512;-3.872;-1.263;-0.764;-1.144;-0.22;0.0;4.9;28.2;53.46;6754;2018-04-16 22:54:43:826
-0.085;-12.869;0.251;-3.597;-8.996;1.515;3.512;-3.872;-1.263;-0.863;-1.56;-0.308;0.0;4.9;28.2;51.66;6764;2018-04-16 22:54:43:836
-0.466;-12.024;0.964;-3.474;-9.05;1.481;2.625;-2.389;-0.181;-0.935;-1.988;-0.392;-0.1;5.2;28.0;51.66;6774;2018-04-16 22:54:43:846
-1.362;-10.777;1.501;-3.474;-9.05;1.481;2.625;-2.389;-0.181;-0.915;-2.01;-0.421;-0.1;5.2;28.0;51.66;6784;2018-04-16 22:54:43:856
-3.485;-9.135;1.119;-3.336;-9.107;1.447;-0.148;-0.028;-0.328;-0.86;-1.764;-0.45;-0.2;5.5;27.9;51.66;6794;2018-04-16 22:54:43:866
-3.485;-9.135;1.119;-3.336;-9.107;1.447;-0.148;-0.028;-0.328;-0.86;-1.764;-0.45;-0.2;5.5;27.9;51.66;6804;2018-04-16 22:54:43:876
-5.89;-8.418;-1.179;-3.234;-9.167;1.292;-3.265;0.857;-3.029;-1.016;-0.108;-0.549;-0.2;5.7;27.8;51.66;6814;2018-04-16 22:54:43:886
-6.679;-8.276;-1.771;-3.234;-9.167;1.292;-3.265;0.857;-3.029;-1.211;0.474;-0.552;-0.2;5.7;27.8;51.66;6824;2018-04-16 22:54:43:896
-6.679;-8.276;-1.771;-3.234;-9.167;1.292;-3.265;0.857;-3.029;-1.211;0.474;-0.552;-0.2;5.7;27.8;51.66;6834;2018-04-16 22:54:43:906
-6.618;-8.4;-0.362;-3.175;-9.235;0.893;-3.443;0.835;-1.254;-1.846;1.834;-0.475;-0.2;6.0;27.6;51.66;6845;2018-04-16 22:54:43:917
-6.324;-8.747;1.305;-3.175;-9.235;0.893;-3.443;0.835;-1.254;-2.169;2.354;-0.404;-0.2;6.0;27.6;51.66;6854;2018-04-16 22:54:43:926
-6.324;-8.747;1.305;-3.13;-9.287;0.344;-3.077;0.422;1.43;-2.193;2.388;-0.381;-0.2;6.1;27.7;51.66;6866;2018-04-16 22:54:43:938
-6.053;-8.97;2.468;-3.077;-9.31;-0.158;-2.975;0.34;2.627;-1.983;1.901;-0.301;-0.4;6.0;27.6;51.66;6880;2018-04-16 22:54:43:952
-6.053;-8.97;2.468;-3.077;-9.31;-0.158;-2.975;0.34;2.627;-1.983;1.901;-0.301;-0.4;6.0;27.6;51.66;6884;2018-04-16 22:54:43:956
-5.974;-9.16;2.616;-3.019;-9.312;-0.588;-2.954;0.151;3.204;-1.877;1.618;-0.271;-0.6;5.8;27.7;51.66;6894;2018-04-16 22:54:43:966
-5.974;-9.16;2.616;-3.019;-9.312;-0.588;-2.954;0.151;3.204;-1.691;1.206;-0.227;-0.6;5.8;27.7;51.66;6904;2018-04-16 22:54:43:976
-6.111;-9.597;2.836;-2.961;-9.3;-0.957;-3.272;-0.393;3.807;-1.582;1.306;-0.21;-0.9;5.6;27.7;51.66;6913;2018-04-16 22:54:43:985
-6.302;-9.789;2.547;-2.961;-9.3;-0.957;-3.272;-0.393;3.807;-1.582;1.306;-0.21;-0.9;5.6;27.7;51.66;6924;2018-04-16 22:54:43:996
-6.302;-9.789;2.547;-2.885;-9.275;-1.351;-3.245;-0.69;3.325;-1.547;1.85;-0.178;-1.2;5.3;27.6;51.66;6934;2018-04-16 22:54:44:006
-6.245;-10.187;1.775;-2.885;-9.275;-1.351;-3.245;-0.69;3.325;-1.505;2.074;-0.173;-1.2;5.3;27.6;51.66;6944;2018-04-16 22:54:44:016
-6.245;-10.46;-0.736;-2.794;-9.24;-1.729;-2.432;-1.22;0.992;-1.361;2.015;-0.143;-1.7;4.8;27.6;51.66;6954;2018-04-16 22:54:44:026
-5.227;-10.46;-0.736;-2.794;-9.24;-1.729;-2.432;-1.22;0.992;-1.361;2.015;-0.143;-1.7;4.8;27.6;51.66;6963;2018-04-16 22:54:44:035
-4.421;-10.36;-2.398;-2.794;-9.24;-1.729;-2.432;-1.22;0.992;-1.109;1.189;-0.026;-1.7;4.8;27.6;51.66;6974;2018-04-16 22:54:44:046
-3.476;-9.778;-1.93;-2.746;-9.201;-1.994;-1.339;-0.918;-0.223;-0.983;0.832;0.011;-2.8;3.5;27.2;51.66;6984;2018-04-16 22:54:44:056
-3.476;-9.778;-1.93;-2.746;-9.201;-1.994;-1.339;-0.918;-0.223;-0.983;0.832;0.011;-2.8;3.5;27.2;51.66;6994;2018-04-16 22:54:44:066
-1.238;-9.403;-0.231;-2.726;-9.186;-2.085;1.488;-0.217;1.854;-0.369;-0.004;-0.115;-4.3;1.8;26.7;51.66;7004;2018-04-16 22:54:44:076
-1.238;-9.403;-0.231;-2.726;-9.186;-2.085;1.488;-0.217;1.854;0.022;0.354;-0.391;-4.3;1.8;26.7;51.66;7013;2018-04-16 22:54:44:085
-0.214;-10.204;0.384;-2.62;-9.216;-2.09;2.406;-0.988;2.474;0.097;1.095;-0.527;-4.9;1.4;26.8;51.66;7024;2018-04-16 22:54:44:096
-0.534;-10.111;-0.81;-2.408;-9.258;-2.16;1.874;-0.853;1.35;0.055;2.121;-0.715;-5.5;1.1;27.6;51.66;7034;2018-04-16 22:54:44:106
-0.534;-10.111;-0.81;-2.408;-9.258;-2.16;1.874;-0.853;1.35;0.068;2.219;-0.749;-5.5;1.1;27.6;51.66;7044;2018-04-16 22:54:44:116
-1.595;-9.834;-1.609;-2.171;-9.301;-2.223;0.577;-0.533;0.614;0.169;1.819;-0.775;-6.0;0.4;26.3;51.66;7054;2018-04-16 22:54:44:126
-1.595;-9.834;-1.609;-2.171;-9.301;-2.223;0.577;-0.533;0.614;0.169;1.819;-0.775;-6.0;0.4;26.3;51.66;7063;2018-04-16 22:54:44:135
-2.521;-9.783;-2.261;-2.081;-9.322;-2.223;-0.44;-0.461;-0.038;0.25;1.09;-0.799;-6.0;0.4;26.3;51.66;7073;2018-04-16 22:54:44:145
-2.521;-9.783;-2.261;-2.081;-9.322;-2.223;-0.44;-0.461;-0.038;0.25;1.09;-0.799;-7.2;0.1;26.2;52.61;7084;2018-04-16 22:54:44:156
-3.29;-8.538;-0.32;-1.946;-9.355;-2.206;-1.344;0.817;1.886;-0.005;0.053;-0.729;-7.2;0.1;26.2;52.61;7094;2018-04-16 22:54:44:166
-4.167;-7.73;-0.612;-1.826;-9.368;-2.254;-2.472;2.037;1.357;-0.166;0.045;-0.695;-7.7;-0.5;26.7;52.61;7104;2018-04-16 22:54:44:176
-4.167;-7.73;-0.612;-1.777;-9.362;-2.316;-2.573;2.274;1.092;-0.483;0.035;-0.525;-7.6;-0.3;25.6;52.61;7114;2018-04-16 22:54:44:186
-4.438;-6.93;-1.577;-1.777;-9.362;-2.316;-2.573;2.274;1.092;-0.596;0.042;-0.467;-7.6;-0.3;25.6;52.61;7124;2018-04-16 22:54:44:196
-4.391;-7.099;-2.077;-1.717;-9.328;-2.49;-2.674;2.23;0.413;-0.938;-0.013;-0.335;-7.9;-0.9;26.0;52.61;7134;2018-04-16 22:54:44:206
-4.391;-7.099;-2.077;-1.717;-9.328;-2.49;-2.674;2.23;0.413;-1.091;-0.072;-0.253;-7.9;-0.9;26.0;52.61;7144;2018-04-16 22:54:44:216
-3.772;-7.213;-1.941;-1.691;-9.279;-2.684;-1.95;2.021;0.779;-1.035;-0.203;-0.187;-7.7;-0.7;26.6;52.61;7154;2018-04-16 22:54:44:226
-3.587;-7.25;-1.866;-1.691;-9.279;-2.684;-1.95;2.021;0.779;-1.035;-0.203;-0.187;-7.7;-0.7;26.6;52.61;7164;2018-04-16 22:54:44:236
-3.587;-7.25;-1.866;-1.691;-9.279;-2.684;-1.95;2.021;0.779;-1.035;-0.203;-0.187;-7.7;-0.7;26.6;52.61;7174;2018-04-16 22:54:44:246
-3.344;-6.898;-1.705;-1.678;-9.24;-2.824;-1.666;2.342;1.119;-0.572;-0.144;-0.092;-7.6;-0.8;26.3;52.61;7184;2018-04-16 22:54:44:256
-3.344;-6.898;-1.705;-1.678;-9.24;-2.824;-1.666;2.342;1.119;-0.411;-0.053;-0.05;-7.6;-0.8;26.3;52.61;7194;2018-04-16 22:54:44:266
-3.118;-6.305;-1.27;-1.671;-9.215;-2.91;-1.448;2.91;1.64;-0.411;-0.053;-0.05;-7.9;-1.0;26.4;52.61;7204;2018-04-16 22:54:44:276
-3.047;-6.002;-0.974;-1.678;-9.201;-2.947;-1.254;3.326;2.016;-0.205;-0.017;0.022;-8.3;-1.4;26.2;52.61;7214;2018-04-16 22:54:44:286
-2.772;-5.867;-0.844;-1.678;-9.201;-2.947;-1.254;3.326;2.016;-0.109;-0.018;0.11;-8.3;-1.4;26.2;52.61;7225;2018-04-16 22:54:44:297
-2.07;-6.08;-0.741;-1.712;-9.196;-2.944;-0.357;3.116;2.203;0.071;0.0;0.209;-8.7;-1.7;26.1;52.61;7234;2018-04-16 22:54:44:306
-2.07;-6.08;-0.741;-1.712;-9.196;-2.944;-0.357;3.116;2.203;0.071;0.0;0.209;-8.7;-1.7;26.1;52.61;7244;2018-04-16 22:54:44:316
-2.07;-6.521;-1.256;-1.763;-9.201;-2.899;0.575;2.68;1.643;0.299;0.0;0.297;-9.0;-2.0;26.0;52.61;7254;2018-04-16 22:54:44:326
-1.189;-6.521;-1.256;-1.763;-9.201;-2.899;0.575;2.68;1.643;0.299;0.0;0.297;-9.0;-2.0;26.0;52.61;7264;2018-04-16 22:54:44:336
-1.189;-6.521;-1.256;-1.763;-9.201;-2.899;0.575;2.68;1.643;0.426;-0.144;0.33;-9.2;-2.2;25.9;52.61;7274;2018-04-16 22:54:44:346
-0.15;-7.616;-2.449;-1.833;-9.213;-2.816;1.684;1.597;0.366;0.452;-0.318;0.346;-9.2;-2.2;25.9;52.61;7284;2018-04-16 22:54:44:356
0.281;-8.58;-3.312;-1.833;-9.213;-2.816;1.684;1.597;0.366;0.452;-0.318;0.346;-9.2;-2.2;25.9;52.61;7294;2018-04-16 22:54:44:366
0.401;-9.251;-4.056;-1.919;-9.223;-2.724;2.301;0.212;-1.039;0.39;-0.656;0.376;-9.4;-2.4;25.9;52.61;7304;2018-04-16 22:54:44:376
0.86;-10.282;-4.996;-2.056;-9.216;-2.646;2.916;-1.065;-2.35;0.222;-1.023;0.452;-9.5;-2.4;25.7;52.61;7314;2018-04-16 22:54:44:386
0.86;-10.282;-4.996;-2.056;-9.216;-2.646;2.916;-1.065;-2.35;0.222;-1.023;0.452;-9.5;-2.4;25.7;52.61;7324;2018-04-16 22:54:44:396
0.86;-10.282;-4.996;-2.056;-9.216;-2.646;2.916;-1.065;-2.35;0.037;-1.384;0.492;-9.5;-2.4;25.7;52.61;7334;2018-04-16 22:54:44:406
1.696;-11.116;-5.429;-2.215;-9.196;-2.588;3.911;-1.92;-2.841;-0.078;-1.548;0.409;-9.6;-2.5;25.6;52.61;7345;2018-04-16 22:54:44:417
1.696;-11.116;-5.429;-2.215;-9.196;-2.588;3.911;-1.92;-2.841;-0.269;-1.445;0.177;-9.6;-2.5;25.6;52.61;7354;2018-04-16 22:54:44:426
1.721;-11.49;-5.759;-2.319;-9.174;-2.574;4.04;-2.315;-3.185;-0.332;-1.343;0.082;-9.6;-2.5;25.6;52.61;7364;2018-04-16 22:54:44:436
0.63;-10.643;-5.444;-2.334;-9.165;-2.594;2.964;-1.479;-2.85;-0.391;-1.003;-0.199;-9.5;-2.7;25.7;52.61;7374;2018-04-16 22:54:44:446
0.63;-10.643;-5.444;-2.334;-9.165;-2.594;2.964;-1.479;-2.85;-0.271;-0.947;-0.331;-9.5;-2.7;25.7;52.61;7384;2018-04-16 22:54:44:456
0.047;-9.922;-5.261;-2.325;-9.168;-2.589;2.371;-0.753;-2.672;-0.271;-0.947;-0.331;-9.5;-2.7;25.7;52.61;7394;2018-04-16 22:54:44:466
0.047;-9.922;-5.261;-2.325;-9.168;-2.589;2.371;-0.753;-2.672;-0.037;-0.979;-0.454;-9.5;-2.7;25.7;57.73;7404;2018-04-16 22:54:44:476
-1.721;-9.321;-4.429;-2.287;-9.189;-2.548;0.566;-0.131;-1.881;0.115;-0.941;-0.407;-9.2;-2.8;25.6;57.73;7414;2018-04-16 22:54:44:486
-4.166;-9.785;-3.492;-2.276;-9.211;-2.481;-1.89;-0.574;-1.011;0.115;-0.941;-0.407;-9.0;-2.8;25.7;57.73;7424;2018-04-16 22:54:44:496
-4.166;-9.785;-3.492;-2.276;-9.211;-2.481;-1.89;-0.574;-1.011;0.162;-0.988;-0.237;-9.0;-2.8;25.7;57.73;7434;2018-04-16 22:54:44:506
-6.342;-10.155;-3.466;-2.321;-9.218;-2.41;-4.976;-1.148;-1.319;0.156;-0.996;-0.087;-8.8;-2.7;25.7;57.73;7444;2018-04-16 22:54:44:516
-6.342;-10.155;-3.466;-2.321;-9.218;-2.41;-4.976;-1.148;-1.319;0.121;-0.982;0.065;-8.8;-2.7;25.7;57.73;7454;2018-04-16 22:54:44:526
-8.384;-11.041;-4.098;-2.368;-9.214;-2.379;-6.016;-1.827;-1.719;0.051;-0.993;0.199;-8.6;-2.7;25.7;57.73;7464;2018-04-16 22:54:44:536
-8.384;-11.041;-4.098;-2.368;-9.214;-2.379;-6.016;-1.827;-1.719;-0.062;-1.131;0.202;-8.6;-2.7;25.7;57.73;7474;2018-04-16 22:54:44:546
-7.045;-13.227;-4.881;-2.463;-9.201;-2.335;-4.582;-4.026;-2.546;-0.062;-1.131;0.202;-8.4;-2.6;25.7;57.73;7484;2018-04-16 22:54:44:556
-7.045;-13.227;-4.881;-2.463;-9.201;-2.335;-4.582;-4.026;-2.546;-0.134;-0.509;-0.233;-8.4;-2.6;25.7;57.73;7494;2018-04-16 22:54:44:566
-1.398;-17.002;-6.167;-2.433;-9.206;-2.344;1.035;-7.796;-3.823;-0.192;0.626;-0.586;-8.1;-2.5;25.8;57.73;7504;2018-04-16 22:54:44:576
-2.103;-13.306;0.152;-2.267;-9.249;-2.343;-0.093;0.211;2.271;0.283;1.379;-0.629;-7.8;-2.4;25.8;57.73;7514;2018-04-16 22:54:44:586
-2.418;-3.807;1.516;-2.267;-9.249;-2.343;-0.093;0.211;2.271;0.539;0.808;-0.343;-7.8;-2.4;25.8;57.73;7524;2018-04-16 22:54:44:596
-2.64;-1.301;3.695;-2.186;-9.283;-2.284;-0.454;7.982;5.979;0.367;0.347;-0.265;-7.5;-2.2;26.0;57.73;7535;2018-04-16 22:54:44:607
-2.64;-1.301;3.695;-2.186;-9.283;-2.284;-0.454;7.982;5.979;0.367;0.347;-0.265;-7.5;-2.2;26.0;57.73;7543;2018-04-16 22:54:44:615
-2.919;-2.078;2.682;-2.105;-9.318;-2.218;-0.813;7.239;4.899;0.465;0.367;-0.417;-7.2;-2.1;26.0;57.73;7554;2018-04-16 22:54:44:626
-2.919;-2.078;2.682;-2.105;-9.318;-2.218;-0.813;7.239;4.899;0.465;0.367;-0.417;-7.2;-2.1;26.0;57.73;7564;2018-04-16 22:54:44:636
-4.761;-5.04;1.67;-2.105;-9.318;-2.218;-0.813;7.239;4.899;0.751;0.672;-0.191;-7.2;-2.1;26.0;57.73;7574;2018-04-16 22:54:44:646
-6.051;-8.258;0.408;-2.049;-9.357;-2.105;-3.335;3.048;3.221;0.886;0.808;0.182;-7.0;-1.9;26.1;57.73;7583;2018-04-16 22:54:44:655
-6.051;-8.258;0.408;-2.049;-9.357;-2.105;-3.335;3.048;3.221;0.88;0.847;0.56;-7.0;-1.9;26.1;57.73;7594;2018-04-16 22:54:44:666
-6.371;-9.682;0.068;-2.13;-9.367;-1.971;-4.241;-0.315;2.039;0.832;0.847;0.716;-6.9;-1.7;26.2;57.73;7604;2018-04-16 22:54:44:676
-6.609;-11.524;-0.299;-2.279;-9.346;-1.903;-4.33;-2.178;1.604;0.569;0.826;0.965;-6.7;-1.6;26.3;57.73;7614;2018-04-16 22:54:44:686
-6.609;-11.524;-0.299;-2.279;-9.346;-1.903;-4.33;-2.178;1.604;0.342;0.771;1.003;-6.7;-1.6;26.3;57.73;7625;2018-04-16 22:54:44:697
-5.707;-11.115;-0.737;-2.423;-9.309;-1.91;-2.877;-1.569;0.001;0.103;0.621;0.897;-6.6;-1.4;26.3;57.73;7634;2018-04-16 22:54:44:706
-4.09;-9.948;-3.027;-2.423;-9.309;-1.91;-2.877;-1.569;0.001;0.147;-0.282;0.814;-6.6;-1.4;26.3;57.73;7644;2018-04-16 22:54:44:716
-4.09;-9.948;-3.027;-2.423;-9.309;-1.91;-2.877;-1.569;0.001;0.147;-0.282;0.814;-6.6;-1.4;26.3;57.73;7654;2018-04-16 22:54:44:726
-2.978;-8.78;-0.654;-2.624;-9.281;-1.776;-0.476;0.27;0.59;0.638;-1.693;0.888;-6.6;-1.2;26.4;57.73;7664;2018-04-16 22:54:44:736
-2.978;-8.78;-0.654;-2.624;-9.281;-1.776;-0.476;0.27;0.59;0.841;-2.287;0.69;-6.6;-1.2;26.4;57.73;7674;2018-04-16 22:54:44:746
-3.461;-8.69;0.296;-2.829;-9.27;-1.495;-0.632;0.58;1.791;0.775;-2.178;0.627;-6.6;-0.9;26.3;57.73;7684;2018-04-16 22:54:44:756
-3.461;-8.69;0.296;-2.829;-9.27;-1.495;-0.632;0.58;1.791;0.775;-2.178;0.627;-6.6;-0.9;26.3;57.73;7694;2018-04-16 22:54:44:766
-3.166;-9.045;-0.105;-3.002;-9.245;-1.303;-0.164;0.199;1.197;0.389;-1.354;0.705;-6.5;-0.6;26.4;57.73;7704;2018-04-16 22:54:44:776
-3.166;-9.045;-0.105;-3.002;-9.245;-1.303;-0.164;0.199;1.197;0.389;-1.354;0.705;-6.5;-0.6;26.4;57.73;7715;2018-04-16 22:54:44:787
-2.638;-9.82;-0.148;-3.154;-9.21;-1.181;0.515;-0.61;1.033;0.332;-0.977;0.689;-6.4;-0.3;26.5;57.85;7724;2018-04-16 22:54:44:796
-2.638;-9.82;-0.148;-3.154;-9.21;-1.181;0.515;-0.61;1.033;0.43;-0.942;0.408;-6.4;-0.3;26.5;57.85;7734;2018-04-16 22:54:44:806
-3.184;-10.828;0.255;-3.261;-9.19;-1.041;0.077;-1.638;1.296;0.411;-0.833;0.319;-6.2;0.0;26.5;57.85;7744;2018-04-16 22:54:44:816
-3.299;-10.596;0.486;-3.261;-9.19;-1.041;0.077;-1.638;1.296;0.411;-0.833;0.319;-6.2;0.0;26.5;57.85;7754;2018-04-16 22:54:44:826
-3.299;-10.596;0.486;-3.332;-9.178;-0.916;0.226;-1.138;1.4;0.412;-0.7;0.292;-6.1;0.3;26.4;57.85;7764;2018-04-16 22:54:44:836
-2.711;-9.814;0.763;-3.332;-9.178;-0.916;0.226;-1.138;1.4;0.437;-0.612;0.252;-6.1;0.3;26.4;57.85;7774;2018-04-16 22:54:44:846
-2.619;-9.491;0.807;-3.377;-9.174;-0.779;0.771;-0.42;1.678;0.505;-0.54;0.213;-5.9;0.6;26.6;57.85;7784;2018-04-16 22:54:44:856
-2.273;-9.033;0.479;-3.412;-9.173;-0.62;1.138;0.14;1.099;0.626;-0.508;0.202;-5.7;0.9;26.6;57.85;7794;2018-04-16 22:54:44:866
-2.273;-9.033;0.479;-3.412;-9.173;-0.62;1.138;0.14;1.099;0.626;-0.508;0.202;-5.7;0.9;26.6;57.85;7804;2018-04-16 22:54:44:876
-2.31;-8.838;0.464;-3.424;-9.173;-0.543;1.114;0.335;1.008;0.689;-0.589;0.144;-5.7;1.1;26.6;57.85;7814;2018-04-16 22:54:44:886
-2.594;-8.738;0.561;-3.447;-9.173;-0.366;0.853;0.436;0.927;0.716;-0.612;0.117;-5.5;1.5;26.6;57.85;7824;2018-04-16 22:54:44:896
-2.594;-8.738;0.561;-3.447;-9.173;-0.366;0.853;0.436;0.927;0.681;-0.558;0.109;-5.5;1.5;26.6;57.85;7834;2018-04-16 22:54:44:906
-2.453;-8.718;0.113;-3.465;-9.172;-0.208;1.012;0.453;0.321;0.599;-0.561;0.088;-5.3;1.9;26.6;57.85;7844;2018-04-16 22:54:44:916
-2.541;-8.801;-0.232;-3.465;-9.172;-0.208;1.012;0.453;0.321;0.505;-0.602;0.073;-5.3;1.9;26.6;57.85;7854;2018-04-16 22:54:44:926
-2.541;-8.801;-0.232;-3.477;-9.169;-0.078;0.864;0.344;-0.175;0.441;-0.687;0.081;-5.0;2.3;26.5;57.85;7864;2018-04-16 22:54:44:936
-2.692;-8.879;-0.18;-3.477;-9.169;-0.078;0.864;0.344;-0.175;0.441;-0.687;0.081;-5.0;2.3;26.5;57.85;7874;2018-04-16 22:54:44:946
-2.71;-8.875;-0.075;-3.484;-9.167;-0.008;0.774;0.291;-0.068;0.415;-0.764;0.088;-4.8;2.5;26.4;57.85;7884;2018-04-16 22:54:44:956
-2.71;-8.875;-0.075;-3.484;-9.167;-0.008;0.774;0.291;-0.068;0.415;-0.764;0.088;-4.8;2.5;26.4;57.85;7893;2018-04-16 22:54:44:965
-2.965;-9.019;0.608;-3.49;-9.164;0.133;0.525;0.145;0.475;0.501;-0.674;0.042;-4.4;2.9;26.4;57.85;7904;2018-04-16 22:54:44:976
-2.965;-9.019;0.608;-3.49;-9.164;0.133;0.525;0.145;0.475;0.65;-0.122;0.007;-4.4;2.9;26.4;57.85;7914;2018-04-16 22:54:44:986
-2.782;-8.95;0.855;-3.487;-9.162;0.268;0.705;0.212;0.587;0.65;-0.122;0.007;-4.0;3.3;26.5;57.85;7923;2018-04-16 22:54:44:995
-2.577;-8.863;0.486;-3.478;-9.161;0.377;0.9;0.298;0.109;0.718;0.327;-0.037;-3.6;3.7;26.4;57.85;7934;2018-04-16 22:54:45:006
-2.577;-8.863;0.486;-3.478;-9.161;0.377;0.9;0.298;0.109;0.716;0.616;-0.079;-3.6;3.7;26.4;57.85;7944;2018-04-16 22:54:45:016
-2.632;-8.867;0.172;-3.465;-9.162;0.46;0.835;0.285;-0.391;0.704;0.695;-0.075;-3.2;4.0;26.4;57.85;7953;2018-04-16 22:54:45:025
-2.654;-8.904;-0.02;-3.465;-9.162;0.46;0.835;0.285;-0.391;0.704;0.695;-0.075;-3.2;4.0;26.4;57.85;7964;2018-04-16 22:54:45:036
-2.654;-8.904;-0.02;-3.455;-9.162;0.541;0.78;0.247;-0.588;0.698;0.644;-0.071;-2.9;4.5;26.4;57.85;7974;2018-04-16 22:54:45:046
-2.897;-8.972;-0.084;-3.455;-9.162;0.541;0.78;0.247;-0.588;0.757;0.395;-0.043;-2.9;4.5;26.4;57.85;7984;2018-04-16 22:54:45:056
-2.897;-8.972;-0.084;-3.452;-9.156;0.654;0.43;0.157;-0.664;0.787;0.281;0.0;-2.7;4.9;26.3;57.85;7994;2018-04-16 22:54:45:066
-3.081;-9.029;0.012;-3.452;-9.156;0.654;0.43;0.157;-0.664;0.792;0.216;0.048;-2.7;4.9;26.3;57.85;8004;2018-04-16 22:54:45:076
-3.081;-9.029;0.012;-3.452;-9.156;0.654;0.43;0.157;-0.664;0.792;0.216;0.048;-2.7;4.9;26.3;57.85;8014;2018-04-16 22:54:45:086
-3.139;-8.977;0.024;-3.466;-9.141;0.775;0.328;0.164;-0.752;0.766;0.178;0.092;-2.5;5.2;26.2;57.85;8024;2018-04-16 22:54:45:096
-3.273;-8.768;0.086;-3.492;-9.12;0.899;0.198;0.451;-0.824;0.755;0.147;0.128;-2.4;5.6;26.1;57.85;8034;2018-04-16 22:54:45:106
-3.322;-8.589;0.053;-3.492;-9.12;0.899;0.198;0.451;-0.824;0.805;0.094;0.138;-2.4;5.6;26.1;57.85;8044;2018-04-16 22:54:45:116
-3.584;-8.695;0.03;-3.515;-9.093;1.067;-0.069;0.398;-1.037;1.003;-0.099;0.117;-2.3;6.1;26.2;57.85;8054;2018-04-16 22:54:45:126
-3.584;-8.695;0.03;-3.515;-9.093;1.067;-0.069;0.398;-1.037;1.003;-0.099;0.117;-2.3;6.1;26.2;52.58;8064;2018-04-16 22:54:45:136
-3.525;-8.93;0.03;-3.515;-9.093;1.067;-0.069;0.398;-1.037;1.146;-0.217;0.126;-2.3;6.1;26.2;52.58;8074;2018-04-16 22:54:45:146
-3.08;-8.947;-0.111;-3.534;-9.058;1.275;0.009;0.128;-1.245;1.063;-0.143;0.111;-2.3;6.5;26.0;52.58;8084;2018-04-16 22:54:45:156
-3.08;-8.947;-0.111;-3.534;-9.058;1.275;0.009;0.128;-1.245;1.063;-0.1;0.103;-2.3;6.5;26.0;52.58;8094;2018-04-16 22:54:45:166
-2.945;-8.738;-0.242;-3.548;-9.025;1.458;0.527;0.189;-1.653;0.981;-0.1;0.103;-2.2;7.0;25.8;52.58;8104;2018-04-16 22:54:45:176
-2.608;-8.892;-0.429;-3.56;-8.991;1.629;0.951;0.099;-2.057;0.972;-0.128;0.101;-2.2;7.4;25.7;52.58;8114;2018-04-16 22:54:45:186
-2.608;-8.892;-0.429;-3.56;-8.991;1.629;0.951;0.099;-2.057;0.972;-0.128;0.101;-2.2;7.4;25.7;52.58;8124;2018-04-16 22:54:45:196
-2.259;-9.079;-0.614;-3.56;-8.978;1.701;1.301;-0.101;-2.315;0.966;-0.065;0.06;-2.2;7.6;25.6;52.58;8134;2018-04-16 22:54:45:206
-2.259;-9.079;-0.614;-3.56;-8.978;1.701;1.301;-0.101;-2.315;0.966;-0.065;0.06;-2.2;7.6;25.6;52.58;8144;2018-04-16 22:54:45:216
-2.028;-9.627;-0.935;-3.549;-8.958;1.825;1.521;-0.669;-2.76;0.88;0.15;-0.034;-2.3;8.1;25.4;52.58;8154;2018-04-16 22:54:45:226
-2.028;-9.627;-0.935;-3.549;-8.958;1.825;1.521;-0.669;-2.76;0.705;0.398;-0.089;-2.3;8.1;25.4;52.58;8164;2018-04-16 22:54:45:236
-2.182;-10.132;-1.249;-3.546;-8.944;1.897;1.364;-1.188;-3.146;0.484;0.55;-0.088;-2.3;8.5;25.3;52.58;8174;2018-04-16 22:54:45:246
-2.386;-10.84;-0.913;-3.549;-8.939;1.914;1.164;-1.901;-2.827;0.398;0.573;-0.09;-2.4;8.8;25.2;52.58;8184;2018-04-16 22:54:45:256
-2.386;-10.84;-0.913;-3.549;-8.939;1.914;1.164;-1.901;-2.827;0.398;0.573;-0.09;-2.4;8.8;25.2;52.58;8194;2018-04-16 22:54:45:266
-2.442;-11.519;0.043;-3.554;-8.944;1.883;1.112;-2.575;-1.84;-0.028;0.586;-0.105;-2.5;9.2;25.1;52.58;8204;2018-04-16 22:54:45:276
-2.328;-11.443;0.542;-3.554;-8.944;1.883;1.112;-2.575;-1.84;-0.093;0.408;-0.116;-2.5;9.2;25.1;52.58;8214;2018-04-16 22:54:45:286
-2.048;-11.244;0.77;-3.547;-8.956;1.839;1.368;-2.371;-1.146;-0.093;0.408;-0.116;-2.7;9.8;24.9;52.58;8225;2018-04-16 22:54:45:297
-2.048;-11.244;0.77;-3.54;-8.959;1.837;1.492;-2.285;-1.067;-0.015;0.217;-0.114;-2.8;10.0;24.8;52.58;8234;2018-04-16 22:54:45:306
-1.703;-11.179;0.74;-3.505;-8.971;1.843;1.833;-2.286;-1.154;-0.049;-0.203;-0.191;-2.9;10.4;24.6;52.58;8244;2018-04-16 22:54:45:316
-1.703;-11.179;0.74;-3.505;-8.971;1.843;1.833;-2.286;-1.154;-0.049;-0.203;-0.191;-2.9;10.4;24.6;52.58;8254;2018-04-16 22:54:45:326
-1.601;-11.431;0.63;-3.44;-8.997;1.839;1.715;-2.843;-1.354;-0.137;-0.34;-0.221;-3.1;10.7;24.5;52.58;8264;2018-04-16 22:54:45:336
-1.938;-12.264;0.145;-3.44;-8.997;1.839;1.715;-2.843;-1.354;-0.247;-0.545;-0.331;-3.1;10.7;24.5;52.58;8274;2018-04-16 22:54:45:346
-1.938;-12.264;0.145;-3.331;-9.041;1.825;0.739;-2.896;-1.788;-0.421;-0.854;-0.489;-3.2;11.1;24.3;52.58;8283;2018-04-16 22:54:45:355
-2.908;-11.619;0.08;-3.331;-9.041;1.825;0.739;-2.896;-1.788;-0.421;-0.854;-0.489;-3.2;11.1;24.3;52.58;8294;2018-04-16 22:54:45:366
-3.786;-10.449;-0.719;-3.209;-9.097;1.765;-0.578;-1.352;-2.485;-0.538;-0.882;-0.487;-3.3;11.5;24.3;52.58;8304;2018-04-16 22:54:45:376
-3.786;-10.449;-0.719;-3.209;-9.097;1.765;-0.578;-1.352;-2.485;-0.87;-0.616;-0.546;-3.3;11.5;24.3;52.58;8314;2018-04-16 22:54:45:386
-5.546;-9.469;-1.958;-3.109;-9.17;1.552;-2.915;-0.029;-3.727;-1.229;-0.162;-0.519;-3.5;11.7;24.1;52.58;8324;2018-04-16 22:54:45:396
-5.546;-9.469;-1.958;-3.109;-9.17;1.552;-2.915;-0.029;-3.727;-1.229;-0.162;-0.519;-3.5;11.7;24.1;52.58;8334;2018-04-16 22:54:45:406
-6.202;-8.839;-1.8;-3.109;-9.17;1.552;-2.915;0.442;-1.914;-2.314;1.195;-0.426;-3.6;11.9;24.0;52.58;8344;2018-04-16 22:54:45:416
-6.521;-8.924;0.368;-3.055;-9.253;1.106;-3.23;0.442;-1.914;-2.573;1.566;-0.412;-3.6;11.9;24.0;52.58;8354;2018-04-16 22:54:45:426
-6.521;-8.924;0.368;-3.004;-9.32;0.538;-3.647;0.167;0.807;-2.573;1.566;-0.412;-3.7;12.0;24.0;52.58;8364;2018-04-16 22:54:45:436
-6.604;-9.251;1.755;-3.004;-9.32;0.538;-3.647;0.167;0.807;-2.547;1.686;-0.373;-3.7;12.0;24.0;52.58;8374;2018-04-16 22:54:45:446
-6.251;-9.295;2.546;-2.95;-9.352;-0.015;-3.301;0.057;2.561;-2.423;1.718;-0.331;-3.9;12.1;24.1;52.71;8384;2018-04-16 22:54:45:456
-5.677;-9.197;3.44;-2.95;-9.352;-0.015;-3.301;0.057;2.561;-2.061;1.589;-0.327;-3.9;12.1;24.1;52.71;8394;2018-04-16 22:54:45:466
-5.677;-9.197;3.44;-2.95;-9.352;-0.015;-3.301;0.057;2.561;-2.061;1.589;-0.327;-4.1;11.9;24.2;52.71;8404;2018-04-16 22:54:45:476
-5.532;-9.377;3.5;-2.883;-9.362;-0.458;-2.793;0.165;3.898;-1.724;1.337;-0.314;-4.1;11.9;24.2;52.71;8414;2018-04-16 22:54:45:486
-5.27;-9.284;3.303;-2.821;-9.36;-0.778;-2.449;0.076;4.081;-1.349;1.109;-0.258;-4.4;11.7;24.2;52.71;8425;2018-04-16 22:54:45:497
-5.27;-9.284;3.303;-2.821;-9.36;-0.778;-2.449;0.076;4.081;-1.349;1.109;-0.258;-4.4;11.7;24.2;52.71;8434;2018-04-16 22:54:45:506
-6.372;-10.291;3.515;-2.791;-9.354;-0.936;-3.581;-0.937;4.451;-1.175;1.218;-0.186;-4.6;11.6;24.2;52.71;8444;2018-04-16 22:54:45:516
-6.336;-10.448;2.315;-2.745;-9.33;-1.259;-3.273;-1.003;2.973;-1.205;1.695;-0.039;-5.0;11.3;24.4;52.71;8454;2018-04-16 22:54:45:526
-5.227;-10.248;-0.047;-2.745;-9.33;-1.259;-3.273;-1.003;2.973;-1.343;1.971;-0.016;-5.0;11.3;24.4;52.71;8464;2018-04-16 22:54:45:536
-5.227;-10.248;-0.047;-2.688;-9.288;-1.633;-1.773;-1.035;-0.461;-1.53;1.745;-0.017;-5.9;10.1;24.6;52.71;8474;2018-04-16 22:54:45:546
-4.051;-10.228;-2.604;-2.688;-9.288;-1.633;-1.773;-1.035;-0.461;-1.572;1.123;0.053;-5.9;10.1;24.6;52.71;8484;2018-04-16 22:54:45:556
-4.051;-9.343;-1.889;-2.676;-9.229;-1.957;0.223;-0.114;0.068;-1.484;0.37;0.098;-7.4;8.5;25.4;52.71;8494;2018-04-16 22:54:45:566
-2.453;-9.343;-1.889;-2.676;-9.229;-1.957;0.223;-0.114;0.068;-1.484;0.37;0.098;-7.4;8.5;25.4;52.71;8504;2018-04-16 22:54:45:576
-2.453;-9.343;-1.889;-2.676;-9.229;-1.957;0.223;-0.114;0.068;-0.994;-0.11;-0.066;-7.4;8.5;25.4;52.71;8514;2018-04-16 22:54:45:586
-1.399;-8.862;1.202;-2.674;-9.189;-2.142;1.274;0.326;3.344;-0.994;-0.11;-0.066;-8.0;8.0;24.4;52.71;8524;2018-04-16 22:54:45:596
-1.565;-9.111;1.312;-2.571;-9.188;-2.268;1.006;0.077;3.58;-0.418;1.291;-0.359;-8.9;6.8;25.4;52.71;8534;2018-04-16 22:54:45:606
-1.565;-9.111;1.312;-2.571;-9.188;-2.268;1.006;0.077;3.58;-0.418;1.291;-0.359;-8.9;6.8;25.4;52.71;8544;2018-04-16 22:54:45:616
-1.574;-8.892;-0.053;-2.571;-9.188;-2.268;1.006;0.077;3.58;-0.099;2.302;-0.491;-8.9;6.8;25.4;52.71;8554;2018-04-16 22:54:45:626
-1.574;-8.892;-0.053;-2.357;-9.217;-2.381;0.641;0.266;1.831;-0.099;2.302;-0.491;-9.5;6.5;24.5;52.71;8564;2018-04-16 22:54:45:636
-2.637;-9.073;-1.358;-2.357;-9.217;-2.381;0.641;0.266;1.831;0.325;1.779;-0.573;-10.3;6.1;24.8;52.71;8574;2018-04-16 22:54:45:646
-2.989;-8.204;-0.691;-2.155;-9.258;-2.41;-0.896;0.791;1.382;0.325;1.779;-0.573;-10.3;6.1;24.8;52.71;8583;2018-04-16 22:54:45:655
-2.989;-8.204;-0.691;-2.074;-9.279;-2.403;-0.876;1.185;1.568;0.407;1.405;-0.607;-11.1;5.6;24.5;52.71;8594;2018-04-16 22:54:45:666
-3.12;-7.991;-1.203;-1.914;-9.323;-2.363;-1.082;1.44;1.325;0.357;0.64;-0.637;-11.6;5.5;23.6;52.71;8604;2018-04-16 22:54:45:676
-3.12;-7.991;-1.203;-1.914;-9.323;-2.363;-1.082;1.44;1.325;0.357;0.64;-0.637;-11.6;5.5;23.6;52.71;8614;2018-04-16 22:54:45:686
-3.314;-7.915;-2.12;-1.809;-9.349;-2.343;-1.672;1.583;1.267;-0.067;-0.403;-0.524;-12.1;4.9;24.7;52.71;8624;2018-04-16 22:54:45:696
-3.314;-7.915;-2.12;-1.809;-9.349;-2.343;-1.672;1.583;1.267;-0.067;-0.403;-0.524;-12.1;4.9;24.7;52.71;8634;2018-04-16 22:54:45:706
-3.341;-7.221;-0.946;-1.809;-9.349;-2.343;-1.672;1.583;1.267;-0.349;-0.695;-0.353;-12.1;4.9;24.7;52.71;8644;2018-04-16 22:54:45:716
-3.542;-6.319;-1.237;-1.788;-9.337;-2.408;-1.523;2.557;2.127;-0.8;-0.237;-0.101;-11.8;5.4;24.4;52.71;8654;2018-04-16 22:54:45:726
-3.542;-6.319;-1.237;-1.788;-9.337;-2.408;-1.523;2.557;2.127;-0.8;-0.237;-0.101;-11.8;5.4;24.4;52.71;8664;2018-04-16 22:54:45:736
-3.542;-6.319;-1.237;-1.782;-9.298;-2.557;-1.884;2.987;0.838;-0.809;-0.005;0.004;-12.1;4.8;24.4;52.71;8674;2018-04-16 22:54:45:746
-4.023;-6.298;-2.154;-1.811;-9.26;-2.672;-2.209;3.068;0.968;-0.676;-0.316;0.07;-11.8;4.8;24.6;52.71;8685;2018-04-16 22:54:45:757
-3.851;-6.11;-1.577;-1.811;-9.26;-2.672;-2.209;3.068;0.968;-0.487;-0.608;0.153;-11.8;4.8;24.6;52.71;8694;2018-04-16 22:54:45:766
-3.851;-6.11;-1.577;-1.851;-9.245;-2.698;-1.684;3.221;1.293;-0.487;-0.608;0.224;-11.9;4.9;24.8;53.52;8704;2018-04-16 22:54:45:776
-3.078;-6.036;-1.349;-1.933;-9.226;-2.705;-0.71;3.238;1.694;-0.136;-0.699;0.248;-12.3;4.6;24.8;53.52;8715;2018-04-16 22:54:45:787
-2.174;-5.871;-0.897;-1.933;-9.226;-2.705;-0.71;3.238;1.694;-0.136;-0.699;0.248;-12.3;4.6;24.8;53.52;8724;2018-04-16 22:54:45:796
-2.174;-5.871;-0.897;-1.933;-9.226;-2.705;-0.71;3.238;1.694;-0.009;-0.574;0.296;-12.3;4.6;24.8;53.52;8734;2018-04-16 22:54:45:806
-2.193;-6.105;-1.352;-2.019;-9.213;-2.684;-0.125;3.206;1.516;0.038;-0.527;0.347;-12.7;4.2;24.7;53.52;8744;2018-04-16 22:54:45:816
-2.082;-6.719;-1.949;-2.132;-9.197;-2.653;0.05;2.478;0.704;0.044;-0.567;0.44;-13.0;4.0;24.6;53.52;8754;2018-04-16 22:54:45:826
-2.057;-7.232;-2.454;-2.196;-9.186;-2.638;0.14;1.955;0.184;0.029;-0.657;0.534;-13.2;3.9;24.5;53.52;8764;2018-04-16 22:54:45:836
-1.838;-8.238;-3.517;-2.196;-9.186;-2.638;0.14;1.955;0.184;-0.031;-0.838;0.61;-13.2;3.9;24.5;53.52;8775;2018-04-16 22:54:45:847
-1.838;-8.238;-3.517;-2.355;-9.154;-2.614;0.628;0.56;-1.192;-0.031;-0.838;0.61;-13.4;3.8;24.4;53.52;8785;2018-04-16 22:54:45:857
-1.378;-9.292;-4.379;-2.355;-9.154;-2.614;0.628;0.56;-1.192;-0.132;-1.113;0.583;-13.4;3.8;24.4;53.52;8795;2018-04-16 22:54:45:867
-1.378;-9.292;-4.379;-2.508;-9.12;-2.591;1.703;-0.889;-2.369;-0.208;-1.3;0.43;-13.6;3.7;24.3;53.52;8805;2018-04-16 22:54:45:877
-0.063;-10.852;-5.484;-2.569;-9.106;-2.58;2.505;-1.746;-2.904;-0.243;-1.291;0.249;-13.6;3.7;24.4;53.52;8814;2018-04-16 22:54:45:886
-0.063;-10.852;-5.484;-2.569;-9.106;-2.58;2.505;-1.746;-2.904;-0.243;-1.291;0.249;-13.6;3.7;24.4;53.52;8824;2018-04-16 22:54:45:896
-0.063;-10.852;-5.484;-2.569;-9.106;-2.58;2.505;-1.746;-2.904;-0.243;-1.012;-0.086;-13.6;3.7;24.4;53.52;8835;2018-04-16 22:54:45:907
1.802;-12.191;-5.867;-2.572;-9.107;-2.572;4.374;-3.084;-3.295;-0.166;-0.753;-0.338;-13.7;3.7;24.4;53.52;8844;2018-04-16 22:54:45:916
1.802;-12.191;-5.652;-2.464;-9.147;-2.537;5.298;-3.774;-3.114;0.216;-0.125;-0.75;-13.7;3.6;24.5;53.52;8854;2018-04-16 22:54:45:926
2.835;-12.92;-5.652;-2.464;-9.147;-2.537;5.298;-3.774;-3.114;0.216;-0.125;-0.75;-13.7;3.6;24.5;53.52;8864;2018-04-16 22:54:45:936
2.488;-12.35;-5.818;-2.281;-9.217;-2.451;4.411;-2.678;-3.427;0.516;0.166;-0.96;-13.6;3.6;24.7;53.52;8874;2018-04-16 22:54:45:946
1.381;-10.714;-5.993;-2.281;-9.217;-2.451;4.411;-2.678;-3.427;0.659;0.195;-0.96;-13.6;3.6;24.7;53.52;8884;2018-04-16 22:54:45:956
1.381;-10.714;-5.993;-2.281;-9.217;-2.451;4.411;-2.678;-3.427;0.659;0.195;-0.96;-13.6;3.6;24.7;53.52;8894;2018-04-16 22:54:45:966
0.704;-10.092;-5.849;-2.107;-9.288;-2.339;2.81;-0.804;-3.51;0.611;0.05;-0.855;-13.5;3.6;24.8;53.52;8905;2018-04-16 22:54:45:977
-0.937;-9.783;-5.279;-2.107;-9.288;-2.339;2.81;-0.804;-3.51;0.386;-0.497;-0.597;-13.5;3.6;24.8;53.52;8914;2018-04-16 22:54:45:986
-3.081;-9.152;-3.83;-2.026;-9.328;-2.249;0.222;-0.351;-2.489;0.072;-1.294;-0.172;-13.3;3.7;25.1;53.52;8924;2018-04-16 22:54:45:996
-3.081;-9.152;-3.83;-2.093;-9.325;-2.2;-1.926;0.381;-0.076;-0.171;-1.695;0.054;-13.2;3.7;25.2;53.52;8934;2018-04-16 22:54:46:006
-4.138;-9.073;-1.101;-2.093;-9.325;-2.2;-1.926;0.381;-0.076;-0.171;-1.695;0.054;-13.2;3.7;25.2;53.52;8944;2018-04-16 22:54:46:016
-4.7;-10.958;1.994;-2.192;-9.302;-2.2;-2.508;-1.657;4.195;-0.426;-1.69;0.142;-13.0;3.7;25.3;53.52;8954;2018-04-16 22:54:46:026
-4.7;-10.958;1.994;-2.192;-9.302;-2.2;-2.508;-1.657;4.195;-0.417;-1.283;0.079;-13.0;3.7;25.3;53.52;8964;2018-04-16 22:54:46:036
-5.893;-16.196;-4.891;-2.22;-9.284;-2.248;-3.674;-4.33;3.352;-0.403;-0.226;-0.022;-12.8;3.8;25.5;53.52;8974;2018-04-16 22:54:46:046
-7.535;-16.196;-4.891;-2.22;-9.284;-2.248;-3.674;-4.33;3.352;-0.644;1.053;-0.045;-12.8;3.8;25.5;53.52;8984;2018-04-16 22:54:46:056
-7.535;-16.196;-4.891;-2.22;-9.284;-2.248;-3.674;-4.33;3.352;-0.644;1.053;-0.045;-12.5;3.8;25.8;53.52;8995;2018-04-16 22:54:46:067
-10.214;-16.895;-14.743;-2.156;-9.242;-2.471;-8.058;-7.653;-12.273;-1.081;1.57;0.027;-12.5;3.8;25.8;53.52;9004;2018-04-16 22:54:46:076
-7.254;-8.873;-1.612;-2.181;-9.186;-2.652;-3.359;3.312;5.074;-0.903;0.411;0.302;-12.3;3.9;25.9;53.52;9014;2018-04-16 22:54:46:086
-2.74;-1.123;5.418;-2.181;-9.186;-2.652;-3.359;3.312;5.074;-0.243;0.511;0.125;-12.3;3.9;25.9;52.19;9023;2018-04-16 22:54:46:095
-2.74;-1.123;5.418;-2.158;-9.184;-2.678;0.029;8.984;6.59;0.138;0.476;-0.076;-12.2;4.0;26.1;52.19;9034;2018-04-16 22:54:46:106
-3.209;-1.526;2.752;-2.158;-9.184;-2.678;0.029;8.984;6.59;0.138;0.476;-0.076;-12.2;4.0;26.1;52.19;9044;2018-04-16 22:54:46:116
-3.209;-1.526;2.752;-2.123;-9.216;-2.594;-2.103;5.985;5.053;0.479;0.161;-0.172;-12.2;4.0;26.3;52.19;9054;2018-04-16 22:54:46:126
-4.754;-4.27;2.255;-2.123;-9.216;-2.594;-2.103;5.985;5.053;0.679;0.137;-0.005;-12.2;4.0;26.3;52.19;9064;2018-04-16 22:54:46:136
-5.884;-7.141;1.468;-2.178;-9.248;-2.43;-3.706;2.107;3.898;0.907;0.171;0.393;-12.1;4.0;26.4;52.19;9074;2018-04-16 22:54:46:146
-5.884;-7.141;1.468;-2.178;-9.248;-2.43;-3.706;2.107;3.898;0.907;0.171;0.393;-12.1;4.0;26.4;52.19;9084;2018-04-16 22:54:46:156
-6.764;-10.174;1.167;-2.308;-9.252;-2.289;-4.516;-1.717;3.386;0.827;0.215;0.751;-12.0;4.1;26.8;52.19;9094;2018-04-16 22:54:46:166
-6.536;-11.667;0.785;-2.308;-9.252;-2.289;-4.516;-1.717;3.386;0.379;0.314;0.913;-12.0;4.1;26.8;52.19;9104;2018-04-16 22:54:46:176
-6.536;-11.667;0.785;-2.308;-9.252;-2.289;-4.516;-1.717;3.386;0.379;0.314;0.913;-12.0;4.1;26.8;52.19;9113;2018-04-16 22:54:46:185
-6.115;-11.757;0.579;-2.457;-9.222;-2.255;-3.658;-2.535;2.834;-0.009;-0.053;0.821;-12.0;4.1;26.8;52.19;9124;2018-04-16 22:54:46:196
-5.179;-10.952;0.062;-2.624;-9.177;-2.25;-2.037;-1.283;2.104;-0.089;-0.463;0.858;-12.0;4.3;26.8;52.19;9134;2018-04-16 22:54:46:206
-3.625;-9.578;-0.344;-2.624;-9.177;-2.25;-2.037;-1.283;2.104;-0.089;-0.463;0.858;-12.0;4.3;26.8;52.19;9144;2018-04-16 22:54:46:216
-2.923;-8.89;-0.189;-2.842;-9.128;-2.185;-0.081;0.238;1.996;-0.076;-1.87;0.819;-12.1;4.4;26.9;52.19;9154;2018-04-16 22:54:46:226
-2.923;-8.89;-0.189;-2.842;-9.128;-2.185;-0.081;0.238;1.996;-0.076;-1.87;0.819;-12.1;4.4;26.9;52.19;9164;2018-04-16 22:54:46:236
-2.923;-8.89;-0.189;-2.842;-9.128;-2.185;-0.081;0.238;1.996;-0.076;-1.87;0.819;-12.1;4.5;26.9;52.19;9174;2018-04-16 22:54:46:246
-2.215;-8.483;-0.643;-3.078;-9.088;-2.026;0.863;0.605;1.384;0.159;-2.662;0.706;-12.1;4.5;26.9;52.19;9184;2018-04-16 22:54:46:256
-1.933;-8.48;-0.305;-3.078;-9.088;-2.026;0.863;0.605;1.384;0.925;-3.951;0.564;-12.1;4.5;26.9;52.19;9194;2018-04-16 22:54:46:266
-1.933;-8.48;-0.305;-3.318;-9.087;-1.607;1.278;0.509;1.86;1.334;-4.296;0.381;-12.0;4.6;27.0;52.19;9204;2018-04-16 22:54:46:276
-2.466;-9.073;1.125;-3.318;-9.087;-1.607;1.278;0.509;1.86;1.334;-4.296;0.381;-12.0;4.6;27.0;52.19;9214;2018-04-16 22:54:46:286
-2.671;-9.586;1.536;-3.453;-9.119;-1.048;0.702;-0.295;2.527;1.439;0.06;-0.028;-11.7;4.7;27.0;52.19;9224;2018-04-16 22:54:46:296
-2.385;-9.941;0.757;-3.434;-9.152;-0.787;1.05;-0.789;1.544;1.025;1.852;-0.272;-11.4;4.9;27.2;52.19;9234;2018-04-16 22:54:46:306
-2.385;-9.941;0.757;-3.434;-9.152;-0.787;1.05;-0.789;1.544;1.025;1.852;-0.272;-11.4;4.9;27.2;52.19;9244;2018-04-16 22:54:46:316
-2.385;-9.941;0.757;-3.434;-9.152;-0.787;1.05;-0.789;1.544;1.025;1.852;-0.272;-11.4;4.9;27.2;52.19;9254;2018-04-16 22:54:46:326
-2.812;-10.095;0.564;-3.326;-9.19;-0.807;0.514;-0.905;1.371;0.799;2.771;-0.363;-11.0;5.2;27.3;52.19;9264;2018-04-16 22:54:46:336
-2.812;-10.095;0.564;-3.326;-9.19;-0.807;0.514;-0.905;1.371;0.993;2.545;-0.309;-11.0;5.2;27.3;52.19;9274;2018-04-16 22:54:46:346
-2.369;-9.245;-1.227;-3.235;-9.228;-0.745;0.726;-0.5;0.129;1.222;1.786;-0.249;-10.7;5.6;27.3;52.19;9284;2018-04-16 22:54:46:356
-2.369;-9.245;-1.227;-3.235;-9.228;-0.745;0.726;-0.5;0.129;1.222;1.786;-0.249;-10.7;5.6;27.3;52.19;9294;2018-04-16 22:54:46:366
-3.023;-8.563;-1.119;-3.196;-9.255;-0.544;0.174;0.692;-0.575;1.25;0.217;-0.126;-10.5;6.3;27.0;52.19;9304;2018-04-16 22:54:46:376
-3.023;-8.563;-1.119;-3.196;-9.255;-0.544;0.174;0.692;-0.575;1.079;-0.285;-0.004;-10.5;6.3;27.0;52.19;9314;2018-04-16 22:54:46:386
-2.507;-7.855;-0.76;-3.21;-9.26;-0.339;0.703;1.405;-0.422;0.677;-0.907;0.138;-10.2;7.6;27.2;52.19;9326;2018-04-16 22:54:46:398
-2.358;-7.825;-0.739;-3.21;-9.26;-0.339;0.703;1.405;-0.422;0.677;-0.907;0.138;-10.2;7.6;27.2;52.19;9334;2018-04-16 22:54:46:406
-2.954;-8.796;-0.725;-3.238;-9.255;-0.154;0.703;1.11;-0.654;0.601;-1.153;0.115;-10.0;7.8;27.2;52.19;9344;2018-04-16 22:54:46:416
-2.954;-9.299;-0.457;-3.257;-9.25;0.061;-0.012;-0.05;-0.518;0.695;-1.555;0.093;-9.7;8.3;27.2;52.19;9355;2018-04-16 22:54:46:427
-3.269;-9.299;-0.457;-3.257;-9.25;0.061;-0.012;-0.05;-0.518;0.695;-1.555;0.093;-9.7;8.3;27.2;56.66;9364;2018-04-16 22:54:46:436
-3.455;-9.513;-0.026;-3.257;-9.25;0.061;-0.012;-0.05;-0.518;0.711;-1.406;0.084;-9.7;8.3;27.2;56.66;9374;2018-04-16 22:54:46:446
-3.455;-9.513;-0.026;-3.268;-9.242;0.279;-0.15;-0.219;-0.192;0.7;-1.256;0.07;-9.3;8.7;26.9;56.66;9385;2018-04-16 22:54:46:457
-3.376;-9.397;0.146;-3.268;-9.242;0.279;-0.15;-0.219;-0.192;0.699;-0.608;0.038;-9.3;8.7;26.9;56.66;9394;2018-04-16 22:54:46:466
-2.794;-9.278;0.055;-3.269;-9.236;0.431;0.224;-0.031;-0.246;0.72;0.276;-0.017;-8.7;9.5;27.1;56.66;9404;2018-04-16 22:54:46:476
