sep=;
acc_x;acc_y;acc_z;grav_x;grav_y;grav_z;lin_acc_x;lin_acc_y;lin_acc_z;gyro_x;gyro_y;gyro_z;mag_x;mag_y;mag_z;sound_lvl;time_ms;date_time
-1.288;2.83;9.914;-3.854;2.026;8.787;2.895;0.765;1.204;0.037;-0.474;0.303;-4.6;-33.0;9.1;48.46;11;2018-04-16 22:56:21:409
-3.152;2.369;9.09;-3.889;2.012;8.775;0.737;0.357;0.315;-0.396;0.593;0.458;-4.6;-33.2;8.6;48.46;20;2018-04-16 22:56:21:418
-1.405;2.303;8.22;-4.072;1.946;8.706;2.666;0.357;-0.486;-0.8;1.509;0.826;-5.3;-33.0;7.2;48.46;32;2018-04-16 22:56:21:430
-1.405;2.303;8.22;-4.072;1.946;8.706;2.666;0.357;-0.486;-0.8;1.509;0.826;-5.3;-33.0;7.2;48.46;40;2018-04-16 22:56:21:438
-0.638;4.859;7.623;-4.111;1.925;8.693;3.696;3.28;-0.238;-0.535;0.327;0.676;-5.1;-33.1;7.1;48.46;51;2018-04-16 22:56:21:449
-0.638;4.859;7.623;-4.111;1.925;8.693;3.696;3.28;-0.238;-0.535;0.327;0.676;-5.1;-33.1;7.1;48.46;61;2018-04-16 22:56:21:459
-0.563;4.64;7.846;-4.048;1.962;8.714;3.486;2.678;-0.868;0.23;-0.54;0.172;-5.4;-33.3;8.2;48.46;71;2018-04-16 22:56:21:469
-2.331;2.822;7.412;-3.868;2.022;8.782;1.537;0.799;-1.37;0.432;-1.092;-0.165;-5.4;-33.3;8.2;48.46;81;2018-04-16 22:56:21:479
-2.331;2.822;7.412;-3.868;2.022;8.782;1.537;0.799;-1.37;0.345;-1.169;-0.244;-5.1;-33.2;7.9;48.46;91;2018-04-16 22:56:21:489
-2.923;1.856;9.09;-3.648;2.061;8.866;0.853;-0.358;0.35;0.287;-1.247;-0.214;-4.8;-33.3;8.0;48.46;100;2018-04-16 22:56:21:498
-2.872;1.488;9.264;-3.648;2.061;8.866;0.853;-0.358;0.35;0.601;-1.527;-0.098;-4.8;-33.3;8.0;48.46;110;2018-04-16 22:56:21:508
-2.872;1.488;9.264;-3.33;2.203;8.957;0.27;-1.018;-0.359;0.601;-1.527;-0.098;-4.5;-33.3;8.2;48.46;120;2018-04-16 22:56:21:518
-2.745;1.083;7.871;-3.33;2.203;8.957;0.27;-1.018;-0.359;1.3;-2.283;0.032;-4.5;-33.3;8.2;48.46;131;2018-04-16 22:56:21:529
-1.671;1.712;5.763;-2.757;2.538;9.062;1.086;-0.827;-3.299;1.792;-3.048;0.142;-4.1;-33.3;8.5;48.46;141;2018-04-16 22:56:21:539
-1.512;2.242;5.012;-2.388;2.731;9.111;1.981;-0.056;-4.784;2.204;-4.016;0.197;-4.0;-33.3;8.7;48.46;151;2018-04-16 22:56:21:549
-1.512;2.242;5.012;-2.388;2.731;9.111;1.981;-0.056;-4.784;2.204;-4.016;0.197;-4.0;-33.3;8.7;48.46;161;2018-04-16 22:56:21:559
2.954;3.853;5.069;-1.311;3.176;9.185;5.827;0.345;-3.537;2.434;-5.962;0.005;-3.7;-33.2;8.9;48.46;171;2018-04-16 22:56:21:569
2.954;3.853;5.069;-1.311;3.176;9.185;5.827;0.345;-3.537;2.434;-5.962;0.005;-3.7;-33.2;8.9;48.46;180;2018-04-16 22:56:21:578
5.556;2.495;7.038;-0.631;3.404;9.175;6.187;-0.909;-2.137;2.341;-6.804;-0.75;-3.3;-33.1;9.3;48.46;192;2018-04-16 22:56:21:590
-0.792;2.124;9.118;0.496;3.806;9.024;-1.288;-1.682;0.094;2.227;-6.544;-1.692;-3.3;-33.1;9.3;48.46;200;2018-04-16 22:56:21:598
-0.792;2.124;9.118;0.496;3.806;9.024;-1.288;-1.682;0.094;2.227;-6.544;-1.692;-2.9;-32.9;9.7;48.46;210;2018-04-16 22:56:21:608
-4.138;2.746;9.358;0.926;3.987;8.911;-5.064;-1.241;0.446;2.175;-6.034;-1.406;-2.5;-32.7;9.9;50.91;220;2018-04-16 22:56:21:618
-4.138;2.746;9.358;0.926;3.987;8.911;-5.064;-1.241;0.446;2.175;-6.034;-1.406;-2.5;-32.7;9.9;50.91;232;2018-04-16 22:56:21:630
-2.375;1.417;6.019;2.403;4.635;8.301;-3.222;-3.791;-3.248;2.855;-5.054;1.361;1.2;-31.1;12.8;50.91;241;2018-04-16 22:56:21:639
-2.375;1.417;6.019;2.403;4.635;8.301;-3.222;-3.791;-3.248;2.855;-5.054;1.361;1.2;-31.1;12.8;50.91;250;2018-04-16 22:56:21:648
0.909;0.415;3.868;2.865;4.816;8.048;-0.993;-4.552;-4.948;3.062;-5.067;1.883;2.6;-30.0;13.1;50.91;260;2018-04-16 22:56:21:658
4.865;0.897;-0.566;3.908;5.146;7.377;0.957;-4.249;-7.943;2.935;-5.683;2.0;2.6;-30.0;13.1;50.91;271;2018-04-16 22:56:21:669
4.865;0.897;-0.566;3.908;5.146;7.377;0.957;-4.249;-7.943;2.794;-6.136;1.901;4.8;-28.8;14.8;50.91;281;2018-04-16 22:56:21:679
3.476;1.426;0.124;4.971;5.368;6.53;-2.09;-4.038;-6.15;2.794;-6.136;1.901;4.8;-28.8;14.8;50.91;291;2018-04-16 22:56:21:689
1.845;0.883;0.87;4.971;5.368;6.53;-2.09;-4.038;-6.15;2.717;-6.386;1.717;6.5;-28.2;14.5;50.91;301;2018-04-16 22:56:21:699
-0.528;-1.409;1.402;5.513;5.456;6.001;-4.289;-5.02;-4.914;2.629;-6.244;1.869;6.5;-28.2;14.5;50.91;311;2018-04-16 22:56:21:709
-0.528;-1.409;1.402;6.417;5.473;5.004;-9.456;-9.269;2.434;2.492;-5.988;2.467;8.0;-27.4;15.3;50.91;321;2018-04-16 22:56:21:719
-4.62;-4.957;8.288;6.417;5.473;5.004;-9.456;-9.269;2.434;2.492;-5.988;2.467;8.0;-27.4;15.3;50.91;331;2018-04-16 22:56:21:729
-3.624;-6.744;-0.401;6.781;5.365;4.627;-12.453;-11.235;-2.966;2.409;-4.349;3.571;9.6;-25.7;16.1;50.91;340;2018-04-16 22:56:21:738
-3.624;-6.744;-0.401;7.699;4.693;3.857;-9.242;-12.257;-3.188;1.381;-3.861;6.392;9.2;-25.6;14.5;50.91;351;2018-04-16 22:56:21:749
-0.498;-8.474;0.93;7.699;4.693;3.857;-9.242;-12.257;-3.188;1.381;-3.861;6.392;9.2;-25.6;14.5;50.91;361;2018-04-16 22:56:21:759
0.333;-9.014;1.065;8.188;4.068;3.548;-8.686;-12.542;-2.618;0.672;-3.123;7.461;9.1;-26.0;15.1;50.91;370;2018-04-16 22:56:21:768
0.333;-9.014;1.065;8.188;4.068;3.548;-8.686;-12.542;-2.618;0.672;-3.123;7.461;9.1;-26.0;15.1;50.91;381;2018-04-16 22:56:21:779
8.149;-10.903;3.607;8.935;2.551;3.135;-0.786;-13.455;0.472;-0.65;-2.437;8.98;7.7;-27.5;15.4;50.91;391;2018-04-16 22:56:21:789
12.65;-11.279;4.946;8.935;2.551;3.135;-0.786;-13.455;0.472;-1.034;-2.304;9.614;6.4;-27.8;14.9;50.91;401;2018-04-16 22:56:21:799
12.65;-11.279;4.946;9.389;0.726;2.738;4.491;-12.306;2.409;-0.869;-2.616;9.749;6.4;-27.8;14.9;50.91;411;2018-04-16 22:56:21:809
17.35;-12.592;7.554;9.478;-1.18;2.224;8.877;-11.352;5.949;-0.547;-2.705;9.715;4.0;-28.8;12.6;50.91;421;2018-04-16 22:56:21:819
17.35;-12.592;7.554;9.478;-1.18;2.224;8.877;-11.352;5.949;-0.547;-2.705;9.715;4.0;-28.8;12.6;50.91;431;2018-04-16 22:56:21:829
21.611;-11.675;8.405;9.39;-1.971;2.029;12.221;-9.704;6.376;-0.134;-2.348;9.549;1.8;-29.6;15.2;50.91;441;2018-04-16 22:56:21:839
26.27;-7.889;7.183;8.962;-3.58;1.743;17.309;-4.308;5.439;0.165;-1.293;8.386;1.8;-29.6;15.2;50.91;451;2018-04-16 22:56:21:849
26.27;-7.889;7.183;8.962;-3.58;1.743;17.309;-4.308;5.439;0.165;-1.293;8.386;-2.2;-28.9;13.6;50.91;460;2018-04-16 22:56:21:858
26.586;-5.552;7.367;8.36;-4.817;1.754;18.232;-0.48;5.589;-0.508;0.955;6.547;-3.1;-28.4;14.3;50.91;470;2018-04-16 22:56:21:868
26.346;-4.876;7.244;8.008;-5.326;1.918;18.338;0.451;5.326;-0.731;1.691;6.024;-3.1;-28.4;14.3;50.91;481;2018-04-16 22:56:21:879
26.346;-4.876;7.244;8.008;-5.326;1.918;18.338;0.451;5.326;-1.214;3.6;4.407;-7.1;-26.2;13.0;50.91;491;2018-04-16 22:56:21:889
24.428;-5.842;7.167;7.386;-5.988;2.398;16.41;-0.087;4.588;-1.318;4.452;3.548;-8.3;-25.9;14.2;50.91;501;2018-04-16 22:56:21:899
24.428;-5.842;7.167;7.386;-5.988;2.398;16.41;-0.087;4.588;-1.318;4.452;3.548;-8.3;-25.9;14.2;50.91;511;2018-04-16 22:56:21:909
20.61;-6.722;5.094;6.776;-6.429;2.987;12.586;-0.445;0.973;-1.194;5.429;2.414;-11.9;-25.4;11.9;50.91;521;2018-04-16 22:56:21:919
16.484;-7.055;1.756;6.776;-6.429;2.987;12.586;-0.445;0.973;-1.092;5.156;1.955;-11.9;-25.4;11.9;50.91;530;2018-04-16 22:56:21:928
16.484;-7.055;1.756;6.206;-6.758;3.462;8.791;0.294;-2.883;-1.092;5.156;1.955;-15.3;-24.6;8.5;50.91;540;2018-04-16 22:56:21:938
14.942;-6.085;0.93;6.206;-6.758;3.462;8.791;0.294;-2.883;-1.124;3.901;2.001;-16.0;-25.1;8.4;51.62;550;2018-04-16 22:56:21:948
15.505;-6.14;4.12;5.75;-7.05;3.661;9.755;0.91;0.46;-0.861;2.353;1.817;-16.0;-25.1;8.4;51.62;560;2018-04-16 22:56:21:958
15.505;-6.14;4.12;5.75;-7.05;3.661;9.755;0.91;0.46;-0.315;1.371;1.492;-17.9;-25.2;6.4;51.62;570;2018-04-16 22:56:21:968
14.669;-7.496;7.807;5.497;-7.191;3.774;8.73;-0.517;4.867;0.478;0.417;1.208;-17.9;-25.2;6.4;51.62;580;2018-04-16 22:56:21:978
12.731;-8.084;9.403;5.497;-7.191;3.774;8.73;-0.517;4.867;0.478;0.417;1.208;-18.9;-23.0;5.9;51.62;590;2018-04-16 22:56:21:988
12.731;-8.084;9.403;5.381;-7.161;3.993;6.595;-0.686;6.312;1.85;-0.447;1.038;-19.9;-22.5;5.9;51.62;601;2018-04-16 22:56:21:999
12.037;-7.451;11.059;5.381;-7.161;3.993;6.595;-0.686;6.312;2.859;-0.853;1.157;-19.9;-22.5;5.9;51.62;611;2018-04-16 22:56:22:009
12.226;-7.426;10.072;5.253;-7.037;4.366;6.862;-1.153;4.388;3.187;-0.288;1.274;-20.0;-21.4;5.8;51.62;621;2018-04-16 22:56:22:019
12.647;-8.891;6.324;5.152;-6.986;4.562;7.495;-1.905;1.762;3.064;0.04;1.56;-20.0;-21.4;5.8;51.62;631;2018-04-16 22:56:22:029
12.647;-8.891;6.324;5.152;-6.986;4.562;7.495;-1.905;1.762;2.447;0.551;1.508;-20.1;-20.8;8.2;51.62;641;2018-04-16 22:56:22:039
18.337;-3.956;3.622;4.903;-6.899;4.954;13.434;2.942;-1.331;2.022;0.596;0.943;-21.1;-19.8;8.1;51.62;651;2018-04-16 22:56:22:049
18.337;-3.956;3.622;4.903;-6.899;4.954;13.434;2.942;-1.331;2.022;0.596;0.943;-21.1;-19.8;8.1;51.62;661;2018-04-16 22:56:22:059
18.464;-5.467;3.558;4.864;-6.739;5.206;12.952;0.789;-1.525;1.746;0.111;0.176;-22.2;-19.6;7.8;51.62;671;2018-04-16 22:56:22:069
18.464;-5.467;3.558;4.864;-6.739;5.206;12.952;0.789;-1.525;1.746;0.111;0.176;-22.2;-19.6;7.8;51.62;681;2018-04-16 22:56:22:079
13.917;-6.91;-4.144;4.99;-6.594;5.271;8.927;-0.316;-9.416;1.66;-1.03;-0.919;-21.8;-19.6;9.6;51.62;691;2018-04-16 22:56:22:089
8.428;-5.438;6.452;5.462;-6.423;5.008;2.966;0.985;1.444;0.313;-2.799;-1.349;-21.8;-19.6;9.6;51.62;701;2018-04-16 22:56:22:099
8.428;-5.438;6.452;5.462;-6.423;5.008;2.966;0.985;1.444;-0.048;-4.085;-1.232;-21.8;-21.0;9.0;51.62;711;2018-04-16 22:56:22:109
8.428;-5.438;6.452;5.462;-6.423;5.008;2.966;0.985;1.444;-0.048;-4.085;-1.232;-21.8;-21.0;9.0;51.62;721;2018-04-16 22:56:22:119
8.428;-5.438;6.452;5.462;-6.423;5.008;2.966;0.985;1.444;-0.048;-4.085;-1.232;-21.8;-21.0;9.0;51.62;731;2018-04-16 22:56:22:129
8.428;-5.438;6.452;5.462;-6.423;5.008;2.966;0.985;1.444;-0.048;-4.085;-1.232;-21.8;-21.0;9.0;51.62;741;2018-04-16 22:56:22:139
8.428;-5.438;6.452;5.462;-6.423;5.008;2.966;0.985;1.444;-0.048;-4.085;-1.232;-21.8;-21.0;9.0;51.62;751;2018-04-16 22:56:22:149
8.428;-5.438;6.452;5.462;-6.423;5.008;2.966;0.985;1.444;-0.048;-4.085;-1.232;-21.8;-21.0;9.0;51.62;761;2018-04-16 22:56:22:159
8.428;-5.438;6.452;5.462;-6.423;5.008;2.966;0.985;1.444;-0.048;-4.085;-1.232;-21.8;-21.0;9.0;51.62;771;2018-04-16 22:56:22:169
8.428;-5.438;6.452;5.462;-6.423;5.008;2.966;0.985;1.444;-0.048;-4.085;-1.232;-21.8;-21.0;9.0;51.62;781;2018-04-16 22:56:22:179
8.428;-5.438;6.452;5.462;-6.423;5.008;2.966;0.985;1.444;-0.048;-4.085;-1.232;-21.8;-21.0;9.0;51.62;791;2018-04-16 22:56:22:189
8.428;-5.438;6.452;5.462;-6.423;5.008;2.966;0.985;1.444;-0.048;-4.085;-1.232;-21.8;-21.0;9.0;51.62;801;2018-04-16 22:56:22:199
8.428;-5.438;6.452;5.462;-6.423;5.008;2.966;0.985;1.444;-0.048;-4.085;-1.232;-21.8;-21.0;9.0;51.62;811;2018-04-16 22:56:22:209
8.428;-5.438;6.452;5.462;-6.423;5.008;2.966;0.985;1.444;-0.048;-4.085;-1.232;-21.8;-21.0;9.0;51.62;821;2018-04-16 22:56:22:219
8.428;-5.438;6.452;5.462;-6.423;5.008;2.966;0.985;1.444;-0.048;-4.085;-1.232;-21.8;-21.0;9.0;51.62;831;2018-04-16 22:56:22:229
8.428;-5.438;6.452;5.462;-6.423;5.008;2.966;0.985;1.444;-0.048;-4.085;-1.232;-21.8;-21.0;9.0;51.62;841;2018-04-16 22:56:22:239
8.428;-5.438;6.452;5.462;-6.423;5.008;2.966;0.985;1.444;-0.048;-4.085;-1.232;-21.8;-21.0;9.0;51.62;851;2018-04-16 22:56:22:249
8.428;-5.438;6.452;5.462;-6.423;5.008;2.966;0.985;1.444;-0.048;-4.085;-1.232;-21.8;-21.0;9.0;51.62;861;2018-04-16 22:56:22:259
8.428;-5.438;6.452;5.462;-6.423;5.008;2.966;0.985;1.444;-0.048;-4.085;-1.232;-21.8;-21.0;9.0;51.62;871;2018-04-16 22:56:22:269
8.428;-5.438;6.452;5.462;-6.423;5.008;2.966;0.985;1.444;-0.048;-4.085;-1.232;-21.8;-21.0;9.0;51.62;881;2018-04-16 22:56:22:279
8.428;-5.438;6.452;5.462;-6.423;5.008;2.966;0.985;1.444;-0.048;-4.085;-1.232;-21.8;-21.0;9.0;51.62;891;2018-04-16 22:56:22:289
8.428;-5.438;6.452;5.462;-6.423;5.008;2.966;0.985;1.444;-0.048;-4.085;-1.232;-21.8;-21.0;9.0;51.62;901;2018-04-16 22:56:22:299
10.169;-5.989;2.357;5.983;-6.226;4.65;4.572;-0.318;-3.377;0.778;-3.91;-0.969;-20.2;-19.9;10.4;51.62;911;2018-04-16 22:56:22:309
10.169;-5.989;2.357;5.983;-6.226;4.65;4.572;-0.318;-3.377;0.312;-2.468;0.263;-20.2;-19.9;10.4;51.62;921;2018-04-16 22:56:22:319
5.17;-4.155;1.256;9.074;-3.647;0.725;-4.169;-0.352;-0.06;0.064;-2.085;0.556;-5.0;-19.0;22.8;51.62;930;2018-04-16 22:56:22:328
4.648;-2.234;3.524;9.074;-3.647;0.725;-4.169;-0.352;-0.06;0.064;-2.085;0.556;-5.0;-19.0;22.8;51.62;940;2018-04-16 22:56:22:338
4.648;-2.234;3.524;9.016;-3.828;0.477;0.32;0.466;2.347;-0.199;-1.365;1.062;-2.9;-18.9;25.0;51.62;950;2018-04-16 22:56:22:348
9.762;-3.68;1.826;9.016;-3.828;0.477;0.32;0.466;2.347;0.211;-0.418;1.155;-2.9;-18.9;25.0;50.7;961;2018-04-16 22:56:22:359
8.037;-2.521;0.864;8.974;-3.925;0.478;0.041;0.775;1.098;0.286;-0.164;1.037;-2.8;-17.6;21.6;50.7;970;2018-04-16 22:56:22:368
8.037;-2.521;0.864;8.885;-4.121;0.499;-0.244;1.035;-2.714;0.392;0.048;1.126;-2.8;-17.6;21.6;50.7;980;2018-04-16 22:56:22:378
9.414;-4.105;-3.354;8.885;-4.121;0.499;-0.244;1.035;-2.714;0.209;-0.01;1.25;-2.9;-18.1;22.5;50.7;991;2018-04-16 22:56:22:389
9.412;-4.417;-2.124;8.778;-4.347;0.473;0.634;-0.07;-2.596;-0.28;-0.112;1.288;-2.9;-18.1;22.5;50.7;1001;2018-04-16 22:56:22:399
9.412;-4.417;-2.124;8.778;-4.347;0.473;0.634;-0.07;-2.596;-0.28;-0.112;1.288;-3.3;-17.7;23.6;50.7;1010;2018-04-16 22:56:22:408
10.682;-3.68;-0.603;8.624;-4.656;0.356;1.81;1.616;0.733;-0.566;-0.389;1.759;-3.3;-17.7;23.6;50.7;1021;2018-04-16 22:56:22:419
14.092;-3.704;0.18;8.624;-4.656;0.356;1.81;1.616;0.733;-0.601;0.016;2.09;-3.7;-18.2;24.1;50.7;1030;2018-04-16 22:56:22:428
14.092;-3.704;0.18;8.428;-5.003;0.337;8.861;-0.352;-1.677;-0.583;0.397;1.99;-3.7;-18.2;24.1;50.7;1040;2018-04-16 22:56:22:438
16.737;-5.844;-2.371;8.428;-5.003;0.337;8.861;-0.352;-1.677;-0.872;0.641;1.663;-4.5;-18.8;22.6;50.7;1050;2018-04-16 22:56:22:448
12.76;-7.519;-2.52;8.243;-5.303;0.324;4.517;-2.216;-2.844;-1.351;0.613;1.83;-4.9;-19.2;24.0;50.7;1061;2018-04-16 22:56:22:459
9.337;-6.774;-2.544;8.243;-5.303;0.324;4.517;-2.216;-2.844;-1.768;0.574;2.349;-4.9;-19.2;24.0;50.7;1071;2018-04-16 22:56:22:469
9.337;-6.774;-2.544;7.949;-5.74;0.181;0.011;-0.242;-2.178;-2.121;0.434;2.863;-4.9;-19.2;24.0;50.7;1081;2018-04-16 22:56:22:479
5.09;-6.328;1.184;7.949;-5.74;0.181;0.011;-0.242;-2.178;-2.107;0.652;3.489;-5.1;-18.7;23.0;50.7;1091;2018-04-16 22:56:22:489
3.097;-6.579;-1.865;7.511;-6.304;0.153;-3.895;0.087;0.291;-1.219;1.427;3.706;-4.6;-18.7;23.6;50.7;1101;2018-04-16 22:56:22:499
3.097;-6.579;-1.865;7.511;-6.304;0.153;-3.895;0.087;0.291;0.23;0.608;4.203;-4.6;-18.7;23.6;50.7;1111;2018-04-16 22:56:22:509
1.352;-7.524;-5.601;6.934;-6.931;0.217;-5.583;-0.593;-5.818;0.987;-1.596;4.864;-4.5;-18.7;23.7;50.7;1121;2018-04-16 22:56:22:519
-0.618;-6.855;-1.103;6.934;-6.931;0.217;-5.583;-0.593;-5.818;1.627;-3.442;5.53;-4.5;-18.7;23.7;50.7;1131;2018-04-16 22:56:22:529
-0.618;-6.855;-1.103;6.124;-7.66;0.015;-6.917;0.938;-0.057;1.627;-3.442;5.53;-4.5;-18.7;23.7;50.7;1141;2018-04-16 22:56:22:539
-0.193;-5.436;1.512;6.124;-7.66;0.015;-6.917;0.938;-0.057;2.305;-4.43;6.045;-4.5;-18.6;23.8;50.7;1151;2018-04-16 22:56:22:549
-0.193;-5.436;1.512;5.132;-8.357;-0.024;-4.461;5.214;1.702;3.067;-4.815;6.299;-4.5;-18.6;23.8;50.7;1161;2018-04-16 22:56:22:559
0.719;-2.91;1.587;5.132;-8.357;-0.024;-4.461;5.214;1.702;3.721;-4.75;6.161;-4.6;-18.4;23.7;50.7;1171;2018-04-16 22:56:22:569
0.168;-3.742;1.408;4.107;-8.9;0.299;-3.94;5.158;1.109;4.285;-4.553;5.966;-4.6;-18.4;23.7;50.7;1181;2018-04-16 22:56:22:579
0.168;-3.742;1.408;4.107;-8.9;0.299;-3.94;5.158;1.109;4.687;-4.353;5.866;-5.3;-16.6;24.3;50.7;1191;2018-04-16 22:56:22:589
-0.557;-5.843;1.936;3.116;-9.261;0.832;-3.912;2.811;1.508;4.297;-3.558;5.564;-5.3;-16.6;24.3;50.7;1201;2018-04-16 22:56:22:599
-1.137;-6.582;3.299;3.116;-9.261;0.832;-3.912;2.811;1.508;2.083;-0.953;5.034;-5.6;-12.9;25.4;50.7;1211;2018-04-16 22:56:22:609
-1.137;-6.582;3.299;2.191;-9.489;1.149;-3.492;3.227;2.378;2.083;-0.953;5.034;-5.7;-10.1;26.4;50.7;1221;2018-04-16 22:56:22:619
-1.569;-6.527;3.423;2.191;-9.489;1.149;-3.492;3.227;2.378;-1.142;2.09;4.446;-5.7;-10.1;26.4;50.7;1231;2018-04-16 22:56:22:629
-1.049;-3.943;1.769;1.299;-9.668;1.005;-2.348;5.725;0.765;-1.142;2.09;4.446;-5.7;-10.1;26.4;50.7;1241;2018-04-16 22:56:22:639
-1.049;-3.943;1.769;1.299;-9.668;1.005;-2.348;5.725;0.765;-1.715;2.072;4.158;-6.5;-7.5;24.4;50.7;1250;2018-04-16 22:56:22:648
-0.136;-2.108;-0.154;0.487;-9.769;0.701;-0.554;7.789;-0.803;-1.747;1.481;4.046;-6.5;-7.5;24.4;50.45;1260;2018-04-16 22:56:22:658
-0.113;-1.829;-0.517;0.487;-9.769;0.701;-0.554;7.789;-0.803;-1.513;0.608;4.004;-6.9;-7.8;24.9;50.45;1270;2018-04-16 22:56:22:668
-5.916;-27.604;-5.324;-0.287;-9.792;0.443;0.52;-5.514;-1.144;-1.251;-0.373;3.947;-7.6;-7.2;25.0;50.45;1281;2018-04-16 22:56:22:679
-5.916;-27.604;-5.324;-0.287;-9.792;0.443;0.52;-5.514;-1.144;-0.991;-1.541;4.641;-7.6;-7.2;25.0;50.45;1291;2018-04-16 22:56:22:689
-13.949;-39.185;4.945;-1.478;-9.69;0.309;-12.471;-29.495;4.636;-0.869;-3.372;7.44;-7.0;-6.5;26.8;50.45;1301;2018-04-16 22:56:22:699
-13.949;-39.185;4.945;-1.478;-9.69;0.309;-12.471;-29.495;4.636;-0.869;-3.372;7.44;-7.0;-6.5;26.8;50.45;1311;2018-04-16 22:56:22:709
17.572;-25.979;-3.909;-3.134;-9.284;0.395;21.015;-12.121;-3.523;-0.435;-4.095;10.029;-7.0;-6.5;26.8;50.45;1321;2018-04-16 22:56:22:719
3.324;-19.701;0.994;-3.134;-9.284;0.395;21.015;-12.121;-3.523;-1.835;-5.644;-0.612;-5.1;-7.1;27.2;50.45;1331;2018-04-16 22:56:22:729
3.324;-19.701;0.994;-2.629;-9.441;0.351;-4.76;-9.662;-2.177;-2.156;-5.607;-3.946;-5.1;-7.1;27.2;50.45;1341;2018-04-16 22:56:22:739
-6.391;-12.299;-1.771;-2.629;-9.441;0.351;-4.76;-9.662;-2.177;-0.304;-8.015;-2.891;-2.9;-7.2;28.1;50.45;1351;2018-04-16 22:56:22:749
-3.722;-5.125;1.618;-2.108;-9.532;0.931;-1.614;4.407;0.687;1.702;-10.281;-1.603;-2.9;-7.2;28.1;50.45;1361;2018-04-16 22:56:22:759
-3.722;-5.125;1.618;-2.108;-9.532;0.931;-1.614;4.407;0.687;3.047;-10.177;-0.728;-0.3;-7.1;25.9;50.45;1371;2018-04-16 22:56:22:769
-4.663;-1.879;1.264;-1.742;-9.468;1.868;-4.499;7.428;-1.833;3.218;-7.49;-0.615;-0.3;-7.1;25.9;50.45;1381;2018-04-16 22:56:22:779
-7.442;-3.873;-1.015;-1.742;-9.468;1.868;-4.499;7.428;-1.833;3.218;-7.49;-0.615;5.2;-4.2;28.7;50.45;1391;2018-04-16 22:56:22:789
-7.442;-3.873;-1.015;-1.657;-9.431;2.115;-3.433;4.061;-2.546;1.348;-0.095;-0.411;5.2;-4.2;28.7;50.45;1401;2018-04-16 22:56:22:799
-4.005;-6.057;0.05;-1.657;-9.431;2.115;-3.433;4.061;-2.546;-0.083;3.283;-0.529;8.1;-3.0;28.0;50.45;1411;2018-04-16 22:56:22:809
-5.107;-9.076;1.578;-1.722;-9.49;1.77;-3.384;0.414;-0.192;-0.97;5.102;-0.756;8.1;-3.0;28.0;50.45;1421;2018-04-16 22:56:22:819
-6.087;-10.932;-0.785;-1.722;-9.49;1.77;-3.384;0.414;-0.192;-1.242;5.967;-0.694;7.6;-3.1;27.2;50.45;1431;2018-04-16 22:56:22:829
-6.087;-10.932;-0.785;-1.833;-9.538;1.354;-4.069;-1.303;-3.263;-0.942;5.861;-0.269;7.6;-3.1;27.2;50.45;1441;2018-04-16 22:56:22:839
-5.179;-10.505;-2.388;-1.833;-9.538;1.354;-4.069;-1.303;-3.263;-0.942;5.861;-0.269;3.6;-3.2;28.6;50.45;1451;2018-04-16 22:56:22:849
-5.179;-9.692;-0.249;-1.921;-9.542;1.198;-2.562;-0.531;-2.216;0.286;2.632;0.018;1.3;-3.7;29.3;50.45;1461;2018-04-16 22:56:22:859
-4.099;-9.692;-0.249;-1.921;-9.542;1.198;-2.562;-0.531;-2.216;0.291;2.06;0.023;1.3;-3.7;29.3;50.45;1471;2018-04-16 22:56:22:869
-3.741;-9.299;0.044;-1.985;-9.533;1.163;-1.756;0.234;-1.119;0.291;2.06;0.023;0.1;-4.4;29.1;50.45;1481;2018-04-16 22:56:22:879
-3.741;-9.299;0.044;-1.985;-9.533;1.163;-1.756;0.234;-1.119;0.127;1.445;0.068;0.1;-4.4;29.1;50.45;1491;2018-04-16 22:56:22:889
-3.523;-9.215;-0.192;-2.048;-9.526;1.111;-1.336;0.409;-1.322;-0.012;1.042;0.144;0.1;-4.4;29.1;50.45;1500;2018-04-16 22:56:22:898
-3.193;-9.006;-0.147;-2.048;-9.526;1.111;-1.336;0.409;-1.322;-0.012;1.042;0.144;0.2;-3.8;31.1;50.45;1510;2018-04-16 22:56:22:908
-3.193;-9.006;-0.147;-2.114;-9.52;1.034;-0.914;0.531;-1.109;-0.242;0.473;0.243;0.2;-3.8;31.1;50.45;1520;2018-04-16 22:56:22:918
-2.873;-9.021;-0.018;-2.114;-9.52;1.034;-0.914;0.531;-1.109;-0.392;0.139;0.293;-0.9;-4.6;28.1;50.45;1530;2018-04-16 22:56:22:928
-2.594;-9.264;0.148;-2.18;-9.516;0.93;-0.414;0.251;-0.782;-0.525;-0.137;0.332;-0.3;-3.8;28.6;50.45;1541;2018-04-16 22:56:22:939
-2.594;-9.264;0.148;-2.18;-9.516;0.93;-0.414;0.251;-0.782;-0.678;-0.483;0.386;-0.3;-3.8;28.6;50.45;1551;2018-04-16 22:56:22:949
-2.279;-9.734;0.418;-2.247;-9.511;0.819;0.033;-0.286;-0.347;-0.732;-0.659;0.415;0.0;-4.2;27.7;50.45;1561;2018-04-16 22:56:22:959
-1.933;-9.894;0.65;-2.247;-9.511;0.819;0.033;-0.286;-0.347;-0.732;-0.659;0.415;0.0;-4.2;27.7;65.82;1571;2018-04-16 22:56:22:969
-1.933;-9.894;0.65;-2.313;-9.503;0.714;0.667;-0.317;0.002;-0.759;-0.863;0.44;0.5;-4.0;30.0;65.82;1581;2018-04-16 22:56:22:979
-1.554;-9.782;0.712;-2.313;-9.503;0.714;0.667;-0.317;0.002;-0.727;-0.983;0.412;0.5;-4.0;30.0;65.82;1591;2018-04-16 22:56:22:989
-1.368;-9.531;0.857;-2.362;-9.497;0.629;0.994;-0.034;0.228;-0.687;-1.023;0.36;1.3;-4.6;29.0;65.82;1601;2018-04-16 22:56:22:999
-1.368;-9.531;0.857;-2.362;-9.497;0.629;0.994;-0.034;0.228;-0.617;-1.013;0.32;1.3;-4.6;29.0;65.82;1611;2018-04-16 22:56:23:009
-1.185;-9.438;0.945;-2.397;-9.492;0.572;1.272;0.054;0.366;-0.523;-0.998;0.286;1.9;-4.5;29.5;65.82;1621;2018-04-16 22:56:23:019
-0.983;-9.544;0.857;-2.397;-9.492;0.572;1.272;0.054;0.366;-0.523;-0.998;0.286;1.9;-4.5;29.5;65.82;1631;2018-04-16 22:56:23:029
-0.983;-9.544;0.857;-2.414;-9.488;0.565;1.697;-0.152;0.246;-0.211;-0.942;0.205;2.2;-4.9;29.6;65.82;1641;2018-04-16 22:56:23:039
-0.599;-9.594;0.808;-2.414;-9.488;0.565;1.697;-0.152;0.246;0.09;-1.016;0.149;2.2;-4.9;29.6;65.82;1651;2018-04-16 22:56:23:049
-0.843;-9.572;0.79;-2.39;-9.486;0.691;1.547;-0.086;0.099;0.401;-1.065;0.034;2.8;-4.3;29.7;65.82;1661;2018-04-16 22:56:23:059
-0.843;-9.572;0.79;-2.39;-9.486;0.691;1.547;-0.086;0.099;0.585;-1.005;-0.092;2.8;-4.3;29.7;65.82;1671;2018-04-16 22:56:23:069
-1.824;-9.635;0.781;-2.344;-9.485;0.849;0.4;-0.108;-0.089;0.637;-0.693;-0.151;2.8;-4.4;29.3;65.82;1681;2018-04-16 22:56:23:079
-2.119;-9.389;0.679;-2.344;-9.485;0.849;0.4;-0.108;-0.089;0.637;-0.693;-0.151;2.8;-4.4;29.3;65.82;1691;2018-04-16 22:56:23:089
-2.119;-9.389;0.679;-2.309;-9.483;0.958;-0.056;0.19;-0.357;0.529;-0.259;-0.153;2.6;-4.4;29.6;65.82;1701;2018-04-16 22:56:23:099
-2.597;-9.307;0.546;-2.309;-9.483;0.958;-0.056;0.19;-0.357;0.44;0.116;-0.2;2.0;-4.2;29.5;65.82;1711;2018-04-16 22:56:23:109
-3.08;-9.361;0.289;-2.281;-9.482;1.032;-0.799;0.12;-0.743;0.498;0.263;-0.202;2.0;-4.2;29.5;65.82;1721;2018-04-16 22:56:23:119
-3.08;-9.361;0.289;-2.281;-9.482;1.032;-0.799;0.12;-0.743;0.498;0.263;-0.202;2.0;-4.2;29.5;65.82;1731;2018-04-16 22:56:23:129
-3.179;-9.358;-0.028;-2.263;-9.475;1.126;-0.92;0.106;-1.251;0.639;0.359;-0.181;1.7;-4.3;29.6;65.82;1741;2018-04-16 22:56:23:139
-3.22;-9.379;-0.3;-2.263;-9.475;1.126;-0.92;0.106;-1.251;0.627;0.464;-0.16;1.7;-4.4;29.6;65.82;1751;2018-04-16 22:56:23:149
-3.22;-9.379;-0.3;-2.256;-9.468;1.195;-0.937;0.084;-1.707;0.523;0.55;-0.137;1.7;-4.4;29.6;65.82;1761;2018-04-16 22:56:23:159
-3.146;-9.363;-0.62;-2.256;-9.468;1.195;-0.937;0.084;-1.707;0.523;0.55;-0.137;1.7;-4.4;29.6;65.82;1771;2018-04-16 22:56:23:169
-2.989;-9.372;-0.892;-2.263;-9.465;1.209;-0.726;0.093;-2.1;0.325;0.622;-0.083;1.7;-4.4;29.7;65.82;1781;2018-04-16 22:56:23:179
-2.989;-9.372;-0.892;-2.263;-9.465;1.209;-0.726;0.093;-2.1;0.184;0.583;-0.053;1.7;-4.4;29.7;65.82;1791;2018-04-16 22:56:23:189
-2.751;-9.443;-0.933;-2.274;-9.467;1.176;-0.421;0.008;-2.099;0.054;0.483;-0.028;1.9;-4.4;29.7;65.82;1801;2018-04-16 22:56:23:199
-2.6;-9.498;-0.807;-2.274;-9.467;1.176;-0.421;0.008;-2.099;-0.079;0.345;-0.007;1.9;-4.4;29.7;65.82;1811;2018-04-16 22:56:23:209
-2.6;-9.498;-0.807;-2.282;-9.472;1.112;-0.282;-0.016;-1.71;-0.2;0.18;0.009;2.1;-4.3;29.6;65.82;1821;2018-04-16 22:56:23:219
-2.549;-9.476;-0.455;-2.282;-9.472;1.112;-0.282;-0.016;-1.71;-0.299;0.01;0.018;2.1;-4.3;29.6;65.82;1831;2018-04-16 22:56:23:229
-2.604;-9.434;-0.059;-2.286;-9.48;1.037;-0.318;0.046;-1.095;-0.37;-0.149;0.023;2.3;-4.2;29.7;65.82;1841;2018-04-16 22:56:23:239
-2.604;-9.434;-0.059;-2.286;-9.48;1.037;-0.318;0.046;-1.095;-0.407;-0.281;0.023;2.3;-4.2;29.7;65.82;1851;2018-04-16 22:56:23:249
-2.652;-9.406;0.394;-2.288;-9.487;0.97;-0.379;0.1;-0.453;-0.411;-0.368;0.029;2.5;-4.2;29.8;65.82;1861;2018-04-16 22:56:23:259
-2.687;-9.406;0.754;-2.288;-9.487;0.97;-0.379;0.1;-0.453;-0.396;-0.398;0.028;2.5;-4.2;29.8;49.36;1871;2018-04-16 22:56:23:269
-2.687;-9.406;0.754;-2.289;-9.491;0.917;-0.437;0.093;0.023;-0.368;-0.384;0.022;2.7;-4.2;29.8;49.36;1881;2018-04-16 22:56:23:279
-2.75;-9.383;1.032;-2.289;-9.491;0.917;-0.437;0.093;0.023;-0.299;-0.286;0.016;2.7;-4.2;29.8;49.36;1891;2018-04-16 22:56:23:289
-2.751;-9.321;1.123;-2.292;-9.494;0.879;-0.459;0.174;0.244;-0.239;-0.198;0.012;2.8;-4.1;29.8;49.36;1901;2018-04-16 22:56:23:299
-2.751;-9.321;1.123;-2.292;-9.494;0.879;-0.459;0.174;0.244;-0.167;-0.109;0.006;2.8;-4.1;29.8;49.36;1911;2018-04-16 22:56:23:309
-2.744;-9.317;1.003;-2.296;-9.495;0.857;-0.439;0.166;0.076;-0.109;-0.024;0.0;3.0;-4.1;29.8;49.36;1921;2018-04-16 22:56:23:319
-2.709;-9.317;0.809;-2.296;-9.495;0.857;-0.439;0.166;0.076;-0.057;0.048;-0.005;3.0;-4.0;29.6;49.36;1931;2018-04-16 22:56:23:329
-2.644;-9.378;0.613;-2.302;-9.495;0.848;-0.379;0.145;-0.18;-0.001;0.117;-0.001;3.0;-4.0;29.6;49.36;1941;2018-04-16 22:56:23:339
-2.644;-9.378;0.613;-2.302;-9.495;0.848;-0.379;0.145;-0.18;0.065;0.112;-0.002;3.0;-3.9;29.6;49.36;1951;2018-04-16 22:56:23:349
-2.529;-9.428;0.435;-2.306;-9.493;0.851;-0.223;0.065;-0.417;0.101;0.079;-0.007;3.0;-3.9;29.6;49.36;1961;2018-04-16 22:56:23:359
-2.529;-9.428;0.435;-2.306;-9.493;0.851;-0.223;0.065;-0.417;0.101;0.079;-0.007;3.0;-3.9;29.6;49.36;1971;2018-04-16 22:56:23:369
-2.485;-9.459;0.314;-2.306;-9.492;0.865;-0.177;0.047;-0.576;0.119;0.043;-0.015;3.0;-3.9;29.6;49.36;1981;2018-04-16 22:56:23:379
-2.488;-9.424;0.223;-2.306;-9.492;0.865;-0.177;0.047;-0.576;0.119;-0.049;-0.022;2.9;-3.8;29.6;49.36;1991;2018-04-16 22:56:23:389
-2.538;-9.38;0.144;-2.304;-9.491;0.883;-0.211;0.102;-0.726;0.116;-0.111;-0.024;2.9;-3.8;29.6;49.36;2001;2018-04-16 22:56:23:399
-2.538;-9.38;0.144;-2.304;-9.491;0.883;-0.211;0.102;-0.726;0.116;-0.111;-0.024;2.9;-3.8;29.6;49.36;2011;2018-04-16 22:56:23:409
-2.617;-9.403;0.122;-2.299;-9.49;0.905;-0.318;0.087;-0.783;0.116;-0.173;-0.028;2.9;-3.8;29.6;49.36;2021;2018-04-16 22:56:23:419
-2.662;-9.439;0.136;-2.297;-9.49;0.915;-0.366;0.051;-0.778;0.108;-0.22;-0.026;2.8;-3.8;29.6;49.36;2031;2018-04-16 22:56:23:429
-2.662;-9.439;0.136;-2.297;-9.49;0.915;-0.366;0.051;-0.778;0.087;-0.263;-0.013;2.8;-3.8;29.6;49.36;2041;2018-04-16 22:56:23:439
-2.695;-9.474;0.153;-2.293;-9.489;0.934;-0.4;-0.002;-0.78;0.065;-0.269;-0.013;2.8;-3.8;29.6;49.36;2051;2018-04-16 22:56:23:449
-2.722;-9.465;0.145;-2.293;-9.489;0.934;-0.4;-0.002;-0.78;0.051;-0.271;-0.012;2.8;-3.9;29.5;49.36;2061;2018-04-16 22:56:23:459
-2.774;-9.348;0.133;-2.29;-9.488;0.947;-0.483;0.14;-0.814;0.046;-0.27;-0.012;2.8;-3.9;29.5;49.36;2071;2018-04-16 22:56:23:469
-2.774;-9.348;0.133;-2.29;-9.488;0.947;-0.483;0.14;-0.814;0.046;-0.27;-0.012;2.8;-3.9;29.5;49.36;2081;2018-04-16 22:56:23:479
-2.788;-9.278;0.192;-2.29;-9.487;0.958;-0.516;0.228;-0.745;0.043;-0.237;-0.007;2.8;-3.9;29.5;49.36;2090;2018-04-16 22:56:23:488
-2.822;-9.262;0.284;-2.29;-9.487;0.958;-0.516;0.228;-0.745;0.013;-0.176;-0.005;2.8;-4.0;29.4;49.36;2101;2018-04-16 22:56:23:499
-2.822;-9.262;0.284;-2.294;-9.487;0.948;-0.536;0.218;-0.635;-0.04;-0.086;0.0;2.8;-4.0;29.4;49.36;2111;2018-04-16 22:56:23:509
-2.814;-9.263;0.324;-2.294;-9.487;0.948;-0.536;0.218;-0.635;-0.092;0.015;0.009;2.8;-4.0;29.5;49.36;2121;2018-04-16 22:56:23:519
-2.752;-9.228;0.348;-2.304;-9.488;0.917;-0.408;0.249;-0.572;-0.117;0.092;0.018;2.9;-4.1;29.6;49.36;2131;2018-04-16 22:56:23:529
-2.646;-9.261;0.384;-2.309;-9.488;0.901;-0.337;0.227;-0.517;-0.095;0.14;0.02;2.9;-4.1;29.6;49.36;2141;2018-04-16 22:56:23:539
-2.646;-9.261;0.384;-2.309;-9.488;0.901;-0.337;0.227;-0.517;-0.068;0.158;0.017;3.0;-4.2;29.5;49.36;2151;2018-04-16 22:56:23:549
-2.585;-9.361;0.436;-2.318;-9.488;0.876;-0.282;0.119;-0.427;-0.066;0.186;0.01;3.0;-4.2;29.3;49.36;2162;2018-04-16 22:56:23:560
-2.599;-9.382;0.462;-2.318;-9.488;0.876;-0.282;0.119;-0.427;-0.077;0.224;0.004;3.0;-4.2;29.3;45.95;2171;2018-04-16 22:56:23:569
-2.599;-9.382;0.462;-2.325;-9.49;0.844;-0.27;0.107;-0.383;-0.077;0.224;0.004;3.0;-4.2;29.3;45.95;2181;2018-04-16 22:56:23:579
-2.598;-9.37;0.461;-2.325;-9.49;0.844;-0.27;0.107;-0.383;-0.099;0.268;-0.001;3.1;-4.2;29.3;45.95;2191;2018-04-16 22:56:23:589
-2.598;-9.37;0.461;-2.325;-9.49;0.844;-0.27;0.107;-0.383;-0.087;0.244;-0.005;3.1;-4.2;29.3;45.95;2201;2018-04-16 22:56:23:599
-2.595;-9.407;0.427;-2.331;-9.491;0.811;-0.264;0.084;-0.383;-0.087;0.244;-0.005;3.1;-4.2;29.3;45.95;2211;2018-04-16 22:56:23:609
-2.644;-9.388;0.49;-2.334;-9.492;0.792;-0.31;0.104;-0.302;-0.033;0.144;-0.016;3.1;-4.2;29.3;45.95;2221;2018-04-16 22:56:23:619
-2.644;-9.388;0.49;-2.334;-9.492;0.792;-0.31;0.104;-0.302;-0.033;0.144;-0.016;3.1;-4.2;29.3;45.95;2230;2018-04-16 22:56:23:628
-2.72;-9.391;0.529;-2.336;-9.492;0.782;-0.391;0.107;-0.249;-0.013;0.105;-0.016;3.1;-4.2;29.3;45.95;2241;2018-04-16 22:56:23:639
-2.731;-9.404;0.497;-2.336;-9.492;0.782;-0.391;0.107;-0.249;0.013;0.05;-0.011;3.1;-4.2;29.3;45.95;2251;2018-04-16 22:56:23:649
-2.731;-9.404;0.497;-2.339;-9.492;0.779;-0.418;0.057;-0.278;0.013;0.05;-0.011;3.1;-4.2;29.3;45.95;2261;2018-04-16 22:56:23:659
-2.752;-9.434;0.48;-2.339;-9.492;0.779;-0.418;0.057;-0.278;0.037;0.016;-0.011;3.1;-4.1;29.4;45.95;2271;2018-04-16 22:56:23:669
-2.695;-9.391;0.454;-2.341;-9.491;0.787;-0.354;0.099;-0.333;0.055;-0.022;-0.01;3.1;-4.1;29.4;45.95;2280;2018-04-16 22:56:23:678
-2.695;-9.391;0.454;-2.341;-9.491;0.787;-0.354;0.099;-0.333;0.072;-0.055;-0.012;3.1;-4.1;29.4;45.95;2291;2018-04-16 22:56:23:689
-2.641;-9.36;0.442;-2.341;-9.489;0.803;-0.296;0.142;-0.373;0.095;-0.088;-0.015;3.1;-4.1;29.4;45.95;2301;2018-04-16 22:56:23:699
-2.623;-9.305;0.401;-2.341;-9.489;0.803;-0.296;0.142;-0.373;0.095;-0.088;-0.015;3.2;-4.0;29.5;45.95;2311;2018-04-16 22:56:23:709
-2.623;-9.305;0.401;-2.34;-9.488;0.825;-0.284;0.202;-0.46;0.115;-0.105;-0.016;3.2;-4.0;29.5;45.95;2321;2018-04-16 22:56:23:719
-2.625;-9.309;0.353;-2.34;-9.488;0.825;-0.284;0.202;-0.46;0.125;-0.111;-0.018;3.1;-4.1;29.3;45.95;2331;2018-04-16 22:56:23:729
-2.63;-9.346;0.299;-2.338;-9.486;0.848;-0.291;0.116;-0.566;0.122;-0.103;-0.017;3.1;-4.1;29.4;45.95;2341;2018-04-16 22:56:23:739
-2.636;-9.398;0.248;-2.338;-9.486;0.848;-0.291;0.116;-0.566;0.122;-0.103;-0.017;3.1;-4.1;29.4;45.95;2351;2018-04-16 22:56:23:749
-2.636;-9.398;0.248;-2.336;-9.485;0.865;-0.308;0.072;-0.672;0.101;-0.087;-0.016;3.1;-4.1;29.4;45.95;2361;2018-04-16 22:56:23:759
-2.654;-9.416;0.154;-2.336;-9.485;0.865;-0.308;0.072;-0.672;0.088;-0.078;-0.015;3.1;-4.1;29.4;45.95;2371;2018-04-16 22:56:23:769
-2.646;-9.407;0.113;-2.336;-9.484;0.872;-0.309;0.077;-0.76;0.054;-0.066;-0.009;3.1;-4.1;29.5;45.95;2381;2018-04-16 22:56:23:779
-2.646;-9.407;0.113;-2.336;-9.484;0.872;-0.309;0.077;-0.76;0.054;-0.066;-0.009;3.1;-4.1;29.5;45.95;2391;2018-04-16 22:56:23:789
-2.671;-9.382;0.126;-2.34;-9.484;0.863;-0.345;0.113;-0.725;0.009;-0.046;-0.004;3.1;-4.1;29.5;45.95;2401;2018-04-16 22:56:23:799
-2.698;-9.364;0.196;-2.34;-9.484;0.863;-0.345;0.113;-0.725;-0.029;-0.027;0.0;3.0;-4.1;29.4;45.95;2410;2018-04-16 22:56:23:808
-2.728;-9.333;0.279;-2.348;-9.484;0.839;-0.369;0.14;-0.589;-0.093;0.017;0.009;3.0;-4.1;29.5;45.95;2421;2018-04-16 22:56:23:819
-2.728;-9.333;0.279;-2.348;-9.484;0.839;-0.369;0.14;-0.589;-0.093;0.017;0.009;3.0;-4.1;29.5;45.95;2431;2018-04-16 22:56:23:829
-2.713;-9.299;0.326;-2.358;-9.485;0.808;-0.357;0.177;-0.477;-0.106;0.032;0.01;3.0;-4.1;29.4;45.95;2441;2018-04-16 22:56:23:839
-2.705;-9.322;0.36;-2.358;-9.485;0.808;-0.357;0.177;-0.477;-0.103;0.029;0.012;3.0;-4.1;29.4;45.95;2452;2018-04-16 22:56:23:850
-2.705;-9.322;0.36;-2.366;-9.485;0.781;-0.316;0.157;-0.418;-0.103;0.029;0.012;3.0;-4.0;29.6;45.95;2462;2018-04-16 22:56:23:860
-2.672;-9.352;0.369;-2.366;-9.485;0.781;-0.316;0.157;-0.418;-0.109;0.024;0.013;3.0;-4.1;29.7;45.95;2471;2018-04-16 22:56:23:869
-2.665;-9.384;0.388;-2.37;-9.485;0.768;-0.294;0.137;-0.38;-0.114;0.017;0.013;3.0;-4.1;29.7;47.78;2483;2018-04-16 22:56:23:881
-2.665;-9.384;0.388;-2.376;-9.486;0.741;-0.275;0.075;-0.344;-0.114;0.017;0.013;3.0;-4.0;29.9;47.78;2491;2018-04-16 22:56:23:889
-2.647;-9.401;0.421;-2.376;-9.486;0.741;-0.275;0.075;-0.344;-0.123;-0.01;0.013;3.0;-4.0;29.8;47.78;2501;2018-04-16 22:56:23:899
-2.626;-9.377;0.47;-2.379;-9.487;0.716;-0.247;0.11;-0.246;-0.114;-0.035;0.007;3.0;-4.0;29.8;47.78;2511;2018-04-16 22:56:23:909
-2.635;-9.353;0.543;-2.379;-9.487;0.716;-0.247;0.11;-0.246;-0.103;-0.051;0.004;3.0;-4.0;29.9;47.78;2521;2018-04-16 22:56:23:919
-2.635;-9.353;0.543;-2.382;-9.487;0.7;-0.264;0.122;-0.143;-0.084;-0.064;-0.001;3.0;-4.0;29.9;47.78;2531;2018-04-16 22:56:23:929
-2.656;-9.398;0.581;-2.382;-9.487;0.7;-0.264;0.122;-0.143;-0.06;-0.065;0.0;3.0;-4.0;29.9;47.78;2541;2018-04-16 22:56:23:939
-2.656;-9.398;0.581;-2.383;-9.487;0.692;-0.279;0.034;-0.103;-0.06;-0.065;0.0;3.0;-4.0;30.0;47.78;2551;2018-04-16 22:56:23:949
-2.659;-9.448;0.609;-2.383;-9.487;0.692;-0.279;0.034;-0.103;-0.024;-0.049;-0.004;3.0;-4.0;30.0;47.78;2561;2018-04-16 22:56:23:959
-2.659;-9.427;0.59;-2.385;-9.487;0.692;-0.274;0.06;-0.102;0.011;-0.021;-0.004;3.0;-4.0;30.0;47.78;2570;2018-04-16 22:56:23:968
-2.659;-9.427;0.59;-2.385;-9.487;0.692;-0.274;0.06;-0.102;0.031;-0.006;-0.004;3.0;-4.0;30.0;47.78;2581;2018-04-16 22:56:23:979
-2.696;-9.374;0.512;-2.387;-9.486;0.697;-0.326;0.127;-0.198;0.031;-0.006;-0.004;3.0;-4.0;30.0;47.78;2591;2018-04-16 22:56:23:989
-2.726;-9.313;0.439;-2.387;-9.486;0.697;-0.326;0.127;-0.198;0.059;0.02;-0.002;3.1;-4.0;30.1;47.78;2601;2018-04-16 22:56:23:999
-2.726;-9.313;0.439;-2.392;-9.484;0.703;-0.34;0.189;-0.348;0.059;0.02;-0.002;3.1;-4.0;30.1;47.78;2611;2018-04-16 22:56:24:009
-2.734;-9.282;0.329;-2.395;-9.483;0.705;-0.35;0.213;-0.387;0.055;0.017;0.002;3.1;-4.0;30.1;47.78;2621;2018-04-16 22:56:24:019
-2.729;-9.238;0.294;-2.395;-9.483;0.705;-0.35;0.213;-0.387;0.05;0.006;0.006;3.1;-4.1;30.1;47.78;2631;2018-04-16 22:56:24:029
-2.729;-9.238;0.294;-2.402;-9.482;0.707;-0.318;0.178;-0.444;0.037;-0.031;0.012;3.1;-4.1;30.1;47.78;2641;2018-04-16 22:56:24:039
-2.723;-9.337;0.227;-2.402;-9.482;0.707;-0.318;0.178;-0.444;0.022;-0.075;0.022;3.1;-4.1;30.1;47.78;2652;2018-04-16 22:56:24:050
-2.701;-9.402;0.254;-2.409;-9.48;0.708;-0.292;0.078;-0.454;0.022;-0.075;0.022;3.1;-4.1;30.1;47.78;2661;2018-04-16 22:56:24:059
-2.701;-9.402;0.254;-2.409;-9.48;0.708;-0.292;0.078;-0.454;0.007;-0.103;0.022;3.2;-4.1;30.1;47.78;2671;2018-04-16 22:56:24:069
-2.747;-9.359;0.338;-2.415;-9.478;0.709;-0.339;0.131;-0.353;-0.002;-0.122;0.02;3.2;-4.1;30.1;47.78;2682;2018-04-16 22:56:24:080
-2.743;-9.291;0.417;-2.415;-9.478;0.709;-0.339;0.131;-0.353;-0.005;-0.133;0.024;3.2;-4.1;30.1;47.78;2691;2018-04-16 22:56:24:089
-2.731;-9.288;0.479;-2.422;-9.476;0.714;-0.309;0.188;-0.235;0.016;-0.126;0.027;3.2;-4.1;30.1;47.78;2701;2018-04-16 22:56:24:099
-2.731;-9.288;0.479;-2.422;-9.476;0.714;-0.309;0.188;-0.235;0.022;-0.092;0.022;3.2;-4.2;30.1;47.78;2712;2018-04-16 22:56:24:110
-2.648;-9.355;0.515;-2.428;-9.474;0.719;-0.195;0.083;-0.21;0.023;-0.04;0.024;3.2;-4.2;30.1;47.78;2721;2018-04-16 22:56:24:119
-2.544;-9.445;0.473;-2.428;-9.474;0.719;-0.195;0.083;-0.21;0.017;0.065;0.018;3.2;-4.2;30.1;47.78;2731;2018-04-16 22:56:24:129
-2.485;-9.497;0.423;-2.433;-9.473;0.717;-0.052;-0.024;-0.295;0.017;0.065;0.018;3.2;-4.2;30.1;47.78;2741;2018-04-16 22:56:24:139
-2.485;-9.497;0.423;-2.433;-9.473;0.717;-0.052;-0.024;-0.295;0.033;0.079;0.012;3.2;-4.2;30.2;47.78;2751;2018-04-16 22:56:24:149
-2.406;-9.513;0.317;-2.435;-9.472;0.718;0.03;-0.023;-0.427;0.057;0.072;0.001;3.2;-4.2;30.2;47.78;2762;2018-04-16 22:56:24:160
-2.4;-9.499;0.271;-2.435;-9.472;0.718;0.03;-0.023;-0.427;0.082;0.051;-0.007;3.2;-4.3;30.2;47.78;2771;2018-04-16 22:56:24:169
-2.4;-9.499;0.271;-2.432;-9.472;0.729;-0.023;0.004;-0.539;0.095;0.021;-0.022;3.2;-4.3;30.2;47.78;2781;2018-04-16 22:56:24:179
-2.494;-9.457;0.16;-2.432;-9.472;0.729;-0.023;0.004;-0.539;0.084;-0.002;-0.031;3.2;-4.2;30.3;47.78;2793;2018-04-16 22:56:24:191
-2.607;-9.398;0.129;-2.428;-9.472;0.739;-0.179;0.074;-0.61;0.084;-0.002;-0.031;3.2;-4.2;30.3;49.68;2801;2018-04-16 22:56:24:199
-2.607;-9.398;0.129;-2.428;-9.472;0.739;-0.179;0.074;-0.61;0.067;-0.01;-0.026;3.3;-4.3;30.3;49.68;2811;2018-04-16 22:56:24:209
-2.68;-9.322;0.105;-2.427;-9.473;0.74;-0.264;0.14;-0.644;0.046;-0.016;-0.021;3.3;-4.3;30.3;49.68;2821;2018-04-16 22:56:24:219
-2.693;-9.374;0.085;-2.427;-9.473;0.74;-0.264;0.14;-0.644;0.026;-0.022;-0.015;3.3;-4.2;30.3;49.68;2831;2018-04-16 22:56:24:229
-2.693;-9.374;0.085;-2.431;-9.472;0.731;-0.252;0.07;-0.627;0.004;-0.028;-0.007;3.3;-4.2;30.3;49.68;2841;2018-04-16 22:56:24:239
-2.661;-9.414;0.119;-2.431;-9.472;0.731;-0.252;0.07;-0.627;-0.022;-0.029;0.002;3.3;-4.2;30.4;49.68;2852;2018-04-16 22:56:24:250
-2.574;-9.424;0.159;-2.434;-9.473;0.713;-0.139;0.049;-0.554;-0.048;-0.028;0.007;3.3;-4.2;30.4;49.68;2861;2018-04-16 22:56:24:259
-2.574;-9.424;0.159;-2.434;-9.473;0.713;-0.139;0.049;-0.554;-0.064;-0.023;0.006;3.3;-4.2;30.5;49.68;2871;2018-04-16 22:56:24:269
-2.502;-9.38;0.238;-2.437;-9.474;0.692;-0.068;0.096;-0.449;-0.079;-0.026;0.005;3.3;-4.2;30.5;49.68;2881;2018-04-16 22:56:24:279
-2.496;-9.394;0.314;-2.437;-9.474;0.692;-0.068;0.096;-0.449;-0.073;-0.023;-0.002;3.3;-4.2;30.5;49.68;2891;2018-04-16 22:56:24:289
-2.496;-9.394;0.314;-2.437;-9.475;0.675;-0.097;0.102;-0.283;-0.071;-0.013;-0.006;3.3;-4.2;30.4;49.68;2901;2018-04-16 22:56:24:299
-2.561;-9.371;0.43;-2.437;-9.475;0.675;-0.132;0.118;-0.209;-0.066;0.012;-0.011;3.3;-4.2;30.4;49.68;2912;2018-04-16 22:56:24:310
-2.618;-9.335;0.506;-2.437;-9.476;0.659;-0.132;0.118;-0.209;-0.06;0.048;-0.017;3.3;-4.1;30.4;49.68;2921;2018-04-16 22:56:24:319
-2.618;-9.335;0.506;-2.437;-9.476;0.659;-0.207;0.148;-0.109;-0.06;0.048;-0.017;3.3;-4.1;30.4;49.68;2932;2018-04-16 22:56:24:330
-2.679;-9.369;0.546;-2.438;-9.477;0.641;-0.226;0.141;-0.117;-0.054;0.148;-0.015;3.3;-4.1;30.5;49.68;2942;2018-04-16 22:56:24:340
-2.679;-9.369;0.546;-2.438;-9.477;0.641;-0.226;0.141;-0.117;-0.054;0.148;-0.015;3.3;-4.1;30.5;49.68;2951;2018-04-16 22:56:24:349
-2.691;-9.345;0.498;-2.439;-9.477;0.633;-0.246;0.129;-0.105;-0.042;0.175;-0.016;3.3;-4.1;30.5;49.68;2961;2018-04-16 22:56:24:359
-2.691;-9.345;0.498;-2.441;-9.478;0.618;-0.272;0.164;-0.14;-0.042;0.175;-0.016;3.3;-4.1;30.5;49.68;2971;2018-04-16 22:56:24:369
-2.717;-9.307;0.464;-2.442;-9.478;0.615;-0.29;0.187;-0.181;0.001;0.154;-0.015;3.3;-4.1;30.5;49.68;2981;2018-04-16 22:56:24:379
-2.732;-9.343;0.419;-2.442;-9.478;0.615;-0.29;0.187;-0.181;0.049;0.103;-0.011;3.3;-4.1;30.6;49.68;2990;2018-04-16 22:56:24:388
-2.739;-9.371;0.394;-2.444;-9.477;0.62;-0.294;0.106;-0.226;0.068;0.071;-0.007;3.3;-4.1;30.6;49.68;3008;2018-04-16 22:56:24:406
-2.739;-9.371;0.394;-2.444;-9.477;0.62;-0.294;0.106;-0.226;0.068;0.071;-0.007;3.3;-4.1;30.6;49.68;3016;2018-04-16 22:56:24:414
-2.739;-9.371;0.394;-2.444;-9.477;0.62;-0.294;0.106;-0.226;0.068;0.071;-0.007;3.3;-4.1;30.6;49.68;3025;2018-04-16 22:56:24:423
-2.739;-9.371;0.394;-2.444;-9.477;0.62;-0.294;0.106;-0.226;0.068;0.071;-0.007;3.3;-4.1;30.6;49.68;3031;2018-04-16 22:56:24:429
-2.68;-9.398;0.35;-2.447;-9.476;0.629;-0.215;0.095;-0.298;0.071;0.031;0.002;3.3;-4.0;30.5;49.68;3041;2018-04-16 22:56:24:439
-2.68;-9.398;0.35;-2.447;-9.476;0.629;-0.215;0.095;-0.298;0.066;-0.039;0.004;3.3;-4.0;30.5;49.68;3051;2018-04-16 22:56:24:449
-2.588;-9.371;0.278;-2.451;-9.473;0.646;-0.141;0.102;-0.377;0.055;-0.042;-0.001;3.3;-3.9;30.5;49.68;3061;2018-04-16 22:56:24:459
-2.601;-9.365;0.28;-2.451;-9.473;0.646;-0.141;0.102;-0.377;0.034;-0.032;-0.001;3.3;-3.9;30.5;49.68;3071;2018-04-16 22:56:24:469
-2.655;-9.37;0.292;-2.453;-9.473;0.647;-0.19;0.091;-0.359;0.018;-0.023;-0.001;3.3;-3.9;30.5;49.68;3081;2018-04-16 22:56:24:479
-2.655;-9.37;0.292;-2.453;-9.473;0.647;-0.19;0.091;-0.359;0.018;-0.023;-0.001;3.3;-3.9;30.5;49.68;3091;2018-04-16 22:56:24:489
-2.668;-9.39;0.315;-2.456;-9.472;0.644;-0.212;0.082;-0.329;0.005;-0.016;0.001;3.3;-3.9;30.4;49.68;3101;2018-04-16 22:56:24:499
-2.676;-9.366;0.344;-2.456;-9.472;0.644;-0.212;0.082;-0.329;0.006;-0.01;0.0;3.2;-3.9;30.4;49.68;3111;2018-04-16 22:56:24:509
-2.676;-9.366;0.344;-2.46;-9.472;0.64;-0.236;0.098;-0.305;0.006;-0.01;0.0;3.2;-3.9;30.4;49.68;3121;2018-04-16 22:56:24:519
-2.714;-9.373;0.362;-2.46;-9.472;0.64;-0.236;0.098;-0.305;-0.001;0.005;-0.001;3.2;-3.9;30.4;50.54;3131;2018-04-16 22:56:24:529
-2.731;-9.343;0.357;-2.464;-9.471;0.632;-0.267;0.128;-0.276;-0.015;0.022;-0.002;3.2;-3.9;30.4;50.54;3141;2018-04-16 22:56:24:539
-2.731;-9.343;0.357;-2.464;-9.471;0.632;-0.267;0.128;-0.276;-0.021;0.039;0.0;3.2;-3.9;30.4;50.54;3151;2018-04-16 22:56:24:549
-2.762;-9.352;0.385;-2.47;-9.47;0.622;-0.29;0.122;-0.236;-0.028;0.045;0.002;3.2;-3.9;30.4;50.54;3161;2018-04-16 22:56:24:559
-2.757;-9.354;0.369;-2.47;-9.47;0.622;-0.29;0.122;-0.236;-0.017;0.043;0.006;3.2;-3.9;30.3;50.54;3172;2018-04-16 22:56:24:570
-2.757;-9.354;0.369;-2.476;-9.469;0.614;-0.266;0.093;-0.248;-0.017;0.043;0.006;3.2;-3.9;30.3;50.54;3181;2018-04-16 22:56:24:579
-2.721;-9.383;0.363;-2.476;-9.469;0.614;-0.266;0.093;-0.248;-0.006;0.026;0.009;3.2;-3.9;30.3;50.54;3191;2018-04-16 22:56:24:589
-2.653;-9.428;0.305;-2.48;-9.468;0.609;-0.172;0.04;-0.304;0.001;0.011;0.011;3.2;-3.9;30.3;50.54;3201;2018-04-16 22:56:24:599
-2.653;-9.428;0.305;-2.48;-9.468;0.609;-0.172;0.04;-0.304;0.001;0.011;0.011;3.2;-3.9;30.3;50.54;3211;2018-04-16 22:56:24:609
-2.576;-9.442;0.251;-2.483;-9.468;0.606;-0.07;0.045;-0.339;0.002;-0.015;0.01;3.1;-3.9;30.3;50.54;3223;2018-04-16 22:56:24:621
-2.576;-9.442;0.251;-2.483;-9.468;0.606;-0.07;0.045;-0.339;0.002;-0.015;0.01;3.1;-3.9;30.3;50.54;3232;2018-04-16 22:56:24:630
-2.543;-9.398;0.262;-2.485;-9.467;0.603;-0.058;0.069;-0.341;-0.007;-0.033;0.011;3.1;-3.9;30.4;50.54;3241;2018-04-16 22:56:24:639
-2.58;-9.354;0.293;-2.487;-9.467;0.596;-0.093;0.113;-0.303;-0.022;-0.028;0.005;3.1;-3.9;30.4;50.54;3250;2018-04-16 22:56:24:648
-2.58;-9.354;0.293;-2.487;-9.467;0.596;-0.093;0.113;-0.303;-0.033;-0.021;0.005;3.1;-3.9;30.4;50.54;3261;2018-04-16 22:56:24:659
-2.653;-9.366;0.308;-2.49;-9.467;0.584;-0.191;0.099;-0.269;-0.051;-0.005;0.001;3.1;-3.9;30.4;50.54;3271;2018-04-16 22:56:24:669
-2.729;-9.369;0.32;-2.49;-9.467;0.584;-0.191;0.099;-0.269;-0.055;0.0;0.0;3.1;-3.8;30.3;50.54;3281;2018-04-16 22:56:24:679
-2.776;-9.346;0.34;-2.494;-9.467;0.57;-0.291;0.085;-0.238;-0.049;-0.001;0.004;3.0;-3.8;30.3;50.54;3292;2018-04-16 22:56:24:690
-2.776;-9.346;0.34;-2.494;-9.467;0.57;-0.291;0.085;-0.238;-0.049;-0.001;0.004;3.0;-3.8;30.3;50.54;3300;2018-04-16 22:56:24:698
-2.756;-9.365;0.369;-2.498;-9.467;0.558;-0.24;0.115;-0.193;-0.049;0.004;0.007;3.0;-3.9;30.4;50.54;3311;2018-04-16 22:56:24:709
-2.696;-9.329;0.353;-2.498;-9.467;0.558;-0.24;0.115;-0.193;-0.051;0.012;0.01;3.0;-3.9;30.4;50.54;3321;2018-04-16 22:56:24:719
-2.696;-9.329;0.353;-2.503;-9.466;0.545;-0.139;0.142;-0.207;-0.051;0.012;0.01;3.0;-3.9;30.4;50.54;3331;2018-04-16 22:56:24:729
-2.641;-9.339;0.345;-2.506;-9.466;0.537;-0.125;0.124;-0.196;-0.054;0.018;0.017;3.0;-3.9;30.4;50.54;3341;2018-04-16 22:56:24:739
-2.613;-9.349;0.34;-2.506;-9.466;0.537;-0.125;0.124;-0.196;-0.057;0.007;0.02;3.0;-3.9;30.4;50.54;3351;2018-04-16 22:56:24:749
-2.613;-9.349;0.34;-2.511;-9.465;0.524;-0.129;0.102;-0.151;-0.053;0.001;0.015;3.0;-3.9;30.4;50.54;3361;2018-04-16 22:56:24:759
-2.658;-9.355;0.372;-2.511;-9.465;0.524;-0.129;0.102;-0.151;-0.05;-0.01;0.012;2.9;-4.0;30.4;50.54;3371;2018-04-16 22:56:24:769
-2.697;-9.374;0.399;-2.515;-9.465;0.514;-0.182;0.09;-0.115;-0.05;-0.01;0.012;2.9;-4.0;30.4;50.54;3381;2018-04-16 22:56:24:779
-2.697;-9.374;0.399;-2.515;-9.465;0.514;-0.182;0.09;-0.115;-0.049;-0.011;0.01;2.9;-4.0;30.3;50.54;3391;2018-04-16 22:56:24:789
-2.723;-9.334;0.401;-2.52;-9.464;0.506;-0.188;0.128;-0.1;-0.035;-0.018;0.012;2.9;-4.0;30.3;50.54;3401;2018-04-16 22:56:24:799
-2.695;-9.317;0.385;-2.52;-9.464;0.506;-0.188;0.128;-0.1;-0.035;-0.018;0.012;2.8;-4.0;30.2;50.54;3411;2018-04-16 22:56:24:809
-2.698;-9.33;0.39;-2.524;-9.463;0.502;-0.174;0.133;-0.112;-0.024;-0.034;0.012;2.8;-4.0;30.2;50.54;3422;2018-04-16 22:56:24:820
-2.698;-9.33;0.39;-2.524;-9.463;0.502;-0.174;0.133;-0.112;-0.013;-0.048;0.017;2.8;-4.0;30.3;50.54;3431;2018-04-16 22:56:24:829
-2.696;-9.331;0.376;-2.526;-9.462;0.502;-0.17;0.131;-0.126;0.004;-0.065;0.017;2.8;-4.0;30.3;50.54;3441;2018-04-16 22:56:24:839
-2.683;-9.369;0.347;-2.531;-9.461;0.506;-0.152;0.092;-0.159;0.004;-0.065;0.017;2.8;-4.0;30.3;50.47;3451;2018-04-16 22:56:24:849
-2.683;-9.369;0.347;-2.531;-9.461;0.506;-0.152;0.092;-0.159;0.026;-0.079;0.017;2.8;-4.0;30.3;50.47;3461;2018-04-16 22:56:24:859
-2.647;-9.367;0.311;-2.534;-9.46;0.514;-0.097;0.091;-0.205;0.037;-0.086;0.016;2.8;-3.9;30.2;50.47;3471;2018-04-16 22:56:24:869
-2.634;-9.376;0.3;-2.534;-9.46;0.514;-0.097;0.091;-0.205;0.044;-0.086;0.016;2.8;-3.9;30.2;50.47;3480;2018-04-16 22:56:24:878
-2.634;-9.376;0.3;-2.537;-9.458;0.524;-0.095;0.069;-0.234;0.044;-0.086;0.016;2.8;-4.0;30.2;50.47;3491;2018-04-16 22:56:24:889
-2.646;-9.382;0.273;-2.539;-9.458;0.529;-0.122;0.07;-0.251;0.042;-0.075;0.012;2.8;-3.9;30.3;50.47;3501;2018-04-16 22:56:24:899
-2.671;-9.403;0.254;-2.539;-9.458;0.529;-0.122;0.07;-0.251;0.034;-0.054;0.009;2.8;-3.9;30.3;50.47;3511;2018-04-16 22:56:24:909
-2.671;-9.403;0.254;-2.539;-9.458;0.529;-0.122;0.07;-0.251;0.034;-0.054;0.009;2.8;-4.0;30.2;50.47;3521;2018-04-16 22:56:24:919
-2.696;-9.415;0.239;-2.541;-9.456;0.534;-0.154;0.041;-0.295;0.032;-0.038;0.01;2.8;-4.0;30.2;50.47;3531;2018-04-16 22:56:24:929
-2.737;-9.421;0.22;-2.545;-9.455;0.538;-0.192;0.034;-0.318;0.033;-0.017;0.007;2.8;-4.0;30.1;50.47;3541;2018-04-16 22:56:24:939
-2.737;-9.421;0.22;-2.545;-9.455;0.538;-0.192;0.034;-0.318;0.029;0.0;0.01;2.8;-4.0;30.1;50.47;3551;2018-04-16 22:56:24:949
-2.743;-9.431;0.207;-2.549;-9.454;0.539;-0.194;0.025;-0.323;0.021;0.017;0.01;2.8;-4.0;30.0;50.47;3561;2018-04-16 22:56:24:959
-2.726;-9.397;0.193;-2.549;-9.454;0.539;-0.194;0.025;-0.323;-0.011;0.059;0.016;2.8;-4.0;30.0;50.47;3571;2018-04-16 22:56:24:969
-2.726;-9.397;0.193;-2.554;-9.453;0.532;-0.156;0.13;-0.35;-0.011;0.059;0.016;2.8;-4.0;30.0;50.47;3581;2018-04-16 22:56:24:979
-2.707;-9.301;0.184;-2.554;-9.453;0.532;-0.156;0.13;-0.35;-0.027;0.073;0.017;2.8;-4.0;30.0;50.47;3591;2018-04-16 22:56:24:989
-2.723;-9.282;0.22;-2.56;-9.452;0.518;-0.164;0.17;-0.298;-0.044;0.081;0.017;2.8;-4.0;30.0;50.47;3601;2018-04-16 22:56:24:999
-2.723;-9.282;0.22;-2.56;-9.452;0.518;-0.164;0.17;-0.298;-0.065;0.083;0.018;2.8;-4.0;30.0;50.47;3611;2018-04-16 22:56:25:009
-2.755;-9.306;0.267;-2.567;-9.452;0.497;-0.178;0.123;-0.212;-0.081;0.075;0.023;2.8;-4.0;30.0;50.47;3621;2018-04-16 22:56:25:019
-2.749;-9.327;0.3;-2.567;-9.452;0.497;-0.178;0.123;-0.212;-0.081;0.075;0.023;2.8;-4.0;30.0;50.47;3631;2018-04-16 22:56:25:029
-2.749;-9.327;0.3;-2.574;-9.451;0.478;-0.161;0.094;-0.16;-0.077;0.044;0.024;2.8;-4.0;30.0;50.47;3641;2018-04-16 22:56:25:039
-2.735;-9.373;0.334;-2.574;-9.451;0.478;-0.161;0.094;-0.16;-0.061;-0.006;0.024;2.8;-4.0;30.0;50.47;3651;2018-04-16 22:56:25:049
-2.707;-9.382;0.375;-2.579;-9.45;0.468;-0.127;0.068;-0.094;-0.045;-0.032;0.023;2.8;-4.0;30.0;50.47;3661;2018-04-16 22:56:25:059
-2.691;-9.394;0.408;-2.581;-9.449;0.466;-0.11;0.056;-0.058;-0.033;-0.054;0.02;2.8;-4.0;30.1;50.47;3672;2018-04-16 22:56:25:070
-2.691;-9.394;0.408;-2.581;-9.449;0.466;-0.11;0.056;-0.058;-0.033;-0.054;0.02;2.8;-4.0;30.1;50.47;3681;2018-04-16 22:56:25:079
-2.739;-9.371;0.429;-2.585;-9.448;0.465;-0.154;0.077;-0.037;-0.02;-0.05;0.016;2.8;-4.1;30.1;50.47;3691;2018-04-16 22:56:25:089
-2.722;-9.342;0.408;-2.587;-9.448;0.466;-0.136;0.106;-0.058;0.002;-0.028;0.01;2.8;-4.1;30.1;50.47;3701;2018-04-16 22:56:25:099
-2.722;-9.342;0.408;-2.587;-9.448;0.466;-0.136;0.106;-0.058;0.002;-0.028;0.01;2.8;-4.1;30.1;50.47;3712;2018-04-16 22:56:25:110
-2.709;-9.285;0.35;-2.588;-9.447;0.467;-0.12;0.162;-0.12;0.024;-0.013;0.004;2.8;-4.1;30.0;50.47;3722;2018-04-16 22:56:25:120
-2.709;-9.285;0.35;-2.59;-9.447;0.471;-0.12;0.162;-0.12;0.024;-0.013;0.004;2.8;-4.1;30.0;50.47;3731;2018-04-16 22:56:25:129
-2.708;-9.3;0.262;-2.591;-9.446;0.474;-0.112;0.127;-0.227;0.031;0.012;0.004;2.8;-4.1;30.1;50.47;3740;2018-04-16 22:56:25:138
-2.699;-9.359;0.219;-2.593;-9.446;0.474;-0.107;0.087;-0.255;0.031;0.012;0.004;2.8;-4.1;30.1;50.47;3752;2018-04-16 22:56:25:150
-2.699;-9.359;0.219;-2.593;-9.446;0.474;-0.107;0.087;-0.255;0.023;0.018;0.001;2.8;-4.1;30.1;50.47;3761;2018-04-16 22:56:25:159
-2.723;-9.454;0.168;-2.594;-9.445;0.474;-0.129;-0.008;-0.306;0.023;0.011;0.004;2.8;-4.1;30.1;51.16;3772;2018-04-16 22:56:25:170
-2.723;-9.454;0.168;-2.594;-9.445;0.474;-0.129;-0.008;-0.306;0.023;0.011;0.004;2.8;-4.1;30.1;51.16;3781;2018-04-16 22:56:25:179
-2.68;-9.432;0.122;-2.596;-9.445;0.476;-0.079;0.035;-0.349;0.027;-0.001;0.004;2.8;-4.2;30.2;51.16;3791;2018-04-16 22:56:25:189
-2.622;-9.353;0.129;-2.596;-9.445;0.476;-0.079;0.035;-0.349;0.026;-0.009;0.001;2.8;-4.2;30.2;51.16;3801;2018-04-16 22:56:25:199
-2.6;-9.28;0.172;-2.596;-9.445;0.473;-0.026;0.157;-0.328;-0.007;0.01;-0.001;2.8;-4.2;30.2;51.16;3811;2018-04-16 22:56:25:209
-2.6;-9.28;0.172;-2.596;-9.445;0.467;-0.041;0.169;-0.271;-0.039;0.031;-0.006;2.8;-4.2;30.2;51.16;3821;2018-04-16 22:56:25:219
-2.709;-9.311;0.247;-2.596;-9.445;0.467;-0.041;0.169;-0.271;-0.076;0.062;-0.009;2.8;-4.2;30.2;51.16;3831;2018-04-16 22:56:25:229
-2.78;-9.365;0.311;-2.596;-9.446;0.448;-0.15;0.109;-0.164;-0.075;0.059;-0.007;2.9;-4.1;30.3;51.16;3841;2018-04-16 22:56:25:239
-2.78;-9.365;0.311;-2.596;-9.446;0.448;-0.15;0.109;-0.164;-0.075;0.059;-0.007;2.9;-4.1;30.3;51.16;3851;2018-04-16 22:56:25:249
-2.793;-9.384;0.368;-2.598;-9.446;0.432;-0.195;0.062;-0.065;-0.055;0.042;-0.001;2.9;-4.1;30.3;51.16;3860;2018-04-16 22:56:25:258
-2.788;-9.376;0.384;-2.598;-9.446;0.432;-0.195;0.062;-0.065;-0.04;0.032;0.002;2.9;-4.1;30.3;51.16;3871;2018-04-16 22:56:25:269
-2.788;-9.376;0.384;-2.601;-9.446;0.425;-0.189;0.089;-0.031;-0.02;0.021;0.001;2.9;-4.1;30.3;51.16;3881;2018-04-16 22:56:25:279
-2.786;-9.318;0.388;-2.601;-9.446;0.425;-0.189;0.089;-0.031;0.001;0.012;0.001;2.9;-4.1;30.3;51.16;3891;2018-04-16 22:56:25:289
-2.786;-9.318;0.388;-2.603;-9.445;0.425;-0.169;0.163;-0.045;0.013;0.015;-0.001;2.9;-4.1;30.3;51.16;3901;2018-04-16 22:56:25:299
-2.75;-9.272;0.375;-2.603;-9.445;0.425;-0.169;0.163;-0.045;0.013;0.015;-0.001;2.8;-4.2;30.2;51.16;3911;2018-04-16 22:56:25:309
-2.683;-9.3;0.347;-2.605;-9.445;0.427;-0.078;0.144;-0.08;0.023;0.031;0.002;2.8;-4.2;30.2;51.16;3921;2018-04-16 22:56:25:319
-2.683;-9.3;0.347;-2.605;-9.445;0.427;-0.078;0.144;-0.08;0.024;0.043;0.002;2.8;-4.1;30.2;51.16;3931;2018-04-16 22:56:25:329
-2.625;-9.325;0.275;-2.605;-9.445;0.427;-0.015;0.124;-0.18;0.018;0.051;-0.002;2.8;-4.1;30.2;51.16;3941;2018-04-16 22:56:25:339
-2.637;-9.311;0.214;-2.605;-9.445;0.427;-0.015;0.124;-0.18;0.026;0.02;-0.005;2.8;-4.1;30.2;51.16;3951;2018-04-16 22:56:25:349
-2.637;-9.311;0.214;-2.605;-9.445;0.428;-0.055;0.129;-0.237;0.026;0.02;-0.005;2.8;-4.1;30.2;51.16;3960;2018-04-16 22:56:25:358
-2.685;-9.303;0.194;-2.605;-9.445;0.428;-0.055;0.129;-0.237;0.032;-0.007;-0.011;2.8;-4.1;30.1;51.16;3970;2018-04-16 22:56:25:368
-2.759;-9.323;0.196;-2.605;-9.444;0.432;-0.154;0.121;-0.235;0.027;-0.023;-0.009;2.8;-4.1;30.1;51.16;3981;2018-04-16 22:56:25:379
-2.759;-9.323;0.196;-2.605;-9.444;0.432;-0.154;0.121;-0.235;0.016;-0.033;-0.007;2.8;-4.0;30.0;51.16;3991;2018-04-16 22:56:25:389
-2.83;-9.371;0.208;-2.607;-9.444;0.432;-0.229;0.087;-0.218;0.004;-0.033;-0.004;2.8;-4.0;30.0;51.16;4001;2018-04-16 22:56:25:399
-2.837;-9.36;0.213;-2.607;-9.444;0.432;-0.229;0.087;-0.218;-0.002;-0.037;0.005;2.8;-4.0;30.0;51.16;4011;2018-04-16 22:56:25:409
-2.837;-9.36;0.213;-2.61;-9.443;0.431;-0.19;0.085;-0.203;-0.001;-0.039;0.006;2.8;-4.0;30.0;51.16;4021;2018-04-16 22:56:25:419
-2.775;-9.371;0.249;-2.61;-9.443;0.431;-0.19;0.085;-0.203;-0.001;-0.039;0.006;2.8;-4.0;30.0;51.16;4031;2018-04-16 22:56:25:429
-2.699;-9.382;0.233;-2.613;-9.442;0.43;-0.086;0.061;-0.197;-0.002;-0.029;0.01;2.8;-4.0;30.0;51.16;4041;2018-04-16 22:56:25:439
-2.699;-9.382;0.233;-2.613;-9.442;0.43;-0.086;0.061;-0.197;-0.006;-0.016;0.011;2.8;-4.0;29.9;51.16;4051;2018-04-16 22:56:25:449
-2.604;-9.363;0.227;-2.615;-9.442;0.427;0.013;0.067;-0.196;-0.007;0.006;0.005;2.8;-4.0;29.9;51.16;4060;2018-04-16 22:56:25:458
-2.598;-9.372;0.249;-2.615;-9.442;0.427;0.013;0.067;-0.196;-0.007;0.006;0.005;2.8;-4.0;29.9;51.16;4071;2018-04-16 22:56:25:469
-2.598;-9.372;0.249;-2.614;-9.442;0.421;0.006;0.089;-0.194;-0.012;0.023;-0.006;2.7;-4.0;29.9;51.16;4081;2018-04-16 22:56:25:479
-2.622;-9.363;0.229;-2.614;-9.442;0.421;0.006;0.089;-0.194;-0.02;0.032;-0.012;2.7;-4.0;29.9;50.81;4092;2018-04-16 22:56:25:490
-2.643;-9.357;0.243;-2.613;-9.443;0.412;-0.051;0.102;-0.179;-0.028;0.035;-0.016;2.7;-4.0;29.9;50.81;4101;2018-04-16 22:56:25:499
-2.737;-9.345;0.259;-2.613;-9.443;0.412;-0.051;0.102;-0.179;-0.032;0.01;-0.017;2.7;-4.0;29.9;50.81;4112;2018-04-16 22:56:25:510
-2.737;-9.345;0.259;-2.611;-9.444;0.404;-0.144;0.104;-0.124;-0.032;0.01;-0.017;2.7;-4.0;29.9;50.81;4121;2018-04-16 22:56:25:519
-2.818;-9.333;0.322;-2.611;-9.444;0.404;-0.144;0.104;-0.124;-0.034;-0.013;-0.016;2.7;-4.0;29.9;50.81;4131;2018-04-16 22:56:25:529
-2.849;-9.291;0.359;-2.611;-9.444;0.398;-0.238;0.154;-0.039;-0.031;-0.018;-0.015;2.7;-4.0;29.9;50.81;4141;2018-04-16 22:56:25:539
-2.849;-9.291;0.359;-2.611;-9.444;0.398;-0.238;0.154;-0.039;-0.029;-0.015;-0.01;2.7;-4.0;29.9;50.81;4151;2018-04-16 22:56:25:549
-2.832;-9.291;0.387;-2.612;-9.444;0.393;-0.203;0.169;-0.001;-0.026;-0.006;-0.005;2.7;-4.0;29.9;50.81;4161;2018-04-16 22:56:25:559
-2.823;-9.305;0.383;-2.612;-9.444;0.393;-0.203;0.169;-0.001;-0.018;0.0;-0.001;2.7;-4.1;29.9;50.81;4171;2018-04-16 22:56:25:569
-2.741;-9.367;0.353;-2.615;-9.444;0.39;-0.127;0.076;-0.037;-0.016;-0.01;0.002;2.7;-4.1;29.9;50.81;4181;2018-04-16 22:56:25:579
-2.741;-9.367;0.353;-2.615;-9.444;0.39;-0.127;0.076;-0.037;-0.016;-0.01;0.002;2.8;-4.0;29.9;50.81;4192;2018-04-16 22:56:25:590
-2.671;-9.388;0.33;-2.615;-9.444;0.389;-0.05;0.045;-0.04;-0.011;-0.031;0.001;2.8;-4.0;29.9;50.81;4202;2018-04-16 22:56:25:600
-2.664;-9.379;0.348;-2.615;-9.444;0.389;-0.05;0.045;-0.04;-0.007;-0.045;-0.004;2.8;-4.0;30.1;50.81;4212;2018-04-16 22:56:25:610
-2.664;-9.379;0.348;-2.614;-9.444;0.391;-0.07;0.099;-0.026;0.001;-0.055;-0.01;2.8;-4.0;30.1;50.81;4222;2018-04-16 22:56:25:620
-2.709;-9.309;0.37;-2.614;-9.444;0.391;-0.07;0.099;-0.026;0.001;-0.055;-0.01;2.8;-4.0;30.1;50.81;4231;2018-04-16 22:56:25:629
-2.709;-9.309;0.37;-2.612;-9.444;0.397;-0.108;0.14;-0.052;0.017;-0.054;-0.013;2.8;-4.1;30.1;50.81;4241;2018-04-16 22:56:25:639
-2.733;-9.316;0.328;-2.612;-9.444;0.397;-0.108;0.14;-0.052;0.024;-0.048;-0.011;2.8;-4.1;30.1;50.81;4251;2018-04-16 22:56:25:649
-2.747;-9.379;0.293;-2.611;-9.444;0.402;-0.136;0.065;-0.109;0.022;-0.026;-0.01;2.8;-4.1;30.0;50.81;4261;2018-04-16 22:56:25:659
-2.747;-9.379;0.293;-2.611;-9.444;0.402;-0.136;0.065;-0.109;0.022;-0.026;-0.01;2.8;-4.1;30.0;50.81;4271;2018-04-16 22:56:25:669
-2.747;-9.406;0.277;-2.611;-9.444;0.404;-0.143;0.042;-0.145;0.013;-0.006;-0.009;2.8;-4.1;30.0;50.81;4280;2018-04-16 22:56:25:678
-2.75;-9.389;0.247;-2.611;-9.444;0.404;-0.143;0.042;-0.145;0.0;0.009;-0.007;2.8;-4.2;30.1;50.81;4291;2018-04-16 22:56:25:689
-2.75;-9.389;0.247;-2.611;-9.444;0.404;-0.143;0.042;-0.145;0.0;0.009;-0.007;2.8;-4.2;30.1;50.81;4301;2018-04-16 22:56:25:699
-2.721;-9.342;0.219;-2.61;-9.444;0.401;-0.111;0.102;-0.182;-0.004;0.009;-0.006;2.8;-4.2;30.1;50.81;4311;2018-04-16 22:56:25:709
-2.714;-9.343;0.241;-2.61;-9.445;0.397;-0.104;0.101;-0.157;-0.01;0.011;-0.006;2.8;-4.2;30.1;50.81;4321;2018-04-16 22:56:25:719
-2.668;-9.304;0.283;-2.61;-9.445;0.397;-0.104;0.101;-0.157;-0.026;0.026;-0.009;2.8;-4.2;30.1;50.81;4331;2018-04-16 22:56:25:729
-2.668;-9.304;0.283;-2.61;-9.445;0.389;-0.042;0.115;-0.109;-0.026;0.026;-0.009;2.8;-4.2;30.1;50.81;4341;2018-04-16 22:56:25:739
-2.67;-9.345;0.302;-2.61;-9.445;0.389;-0.042;0.115;-0.109;-0.031;0.031;-0.007;2.8;-4.3;30.1;50.81;4352;2018-04-16 22:56:25:750
-2.67;-9.345;0.302;-2.609;-9.445;0.381;-0.082;0.061;-0.056;-0.032;0.043;-0.011;2.8;-4.3;30.1;50.81;4360;2018-04-16 22:56:25:758
-2.701;-9.392;0.34;-2.609;-9.445;0.381;-0.082;0.061;-0.056;-0.032;0.043;-0.011;2.8;-4.3;30.0;50.81;4371;2018-04-16 22:56:25:769
-2.723;-9.358;0.379;-2.609;-9.446;0.372;-0.115;0.088;0.007;-0.027;0.054;-0.011;2.9;-4.3;30.0;50.81;4382;2018-04-16 22:56:25:780
-2.723;-9.358;0.379;-2.609;-9.446;0.372;-0.115;0.088;0.007;-0.021;0.06;-0.011;2.9;-4.3;30.0;50.81;4391;2018-04-16 22:56:25:789
-2.756;-9.309;0.382;-2.609;-9.446;0.367;-0.147;0.137;0.015;-0.004;0.056;-0.011;2.9;-4.3;30.0;50.81;4401;2018-04-16 22:56:25:799
-2.756;-9.309;0.382;-2.609;-9.446;0.367;-0.147;0.137;0.015;-0.004;0.056;-0.011;2.9;-4.3;30.1;50.81;4412;2018-04-16 22:56:25:810
-2.726;-9.33;0.353;-2.609;-9.446;0.367;-0.135;0.14;0.009;0.017;0.054;-0.011;2.8;-4.4;30.3;50.29;4421;2018-04-16 22:56:25:819
-2.726;-9.33;0.353;-2.609;-9.446;0.367;-0.135;0.14;0.009;0.017;0.054;-0.011;2.8;-4.4;30.3;50.29;4432;2018-04-16 22:56:25:830
-2.726;-9.33;0.353;-2.609;-9.446;0.367;-0.118;0.093;-0.018;0.013;0.05;-0.012;2.8;-4.4;30.3;50.29;4441;2018-04-16 22:56:25:839
-2.731;-9.419;0.326;-2.608;-9.446;0.367;-0.119;0.004;-0.048;0.02;0.042;-0.011;2.8;-4.5;30.3;50.29;4451;2018-04-16 22:56:25:849
-2.732;-9.421;0.318;-2.608;-9.446;0.367;-0.119;0.004;-0.048;0.026;0.031;-0.007;2.8;-4.5;30.3;50.29;4461;2018-04-16 22:56:25:859
-2.732;-9.421;0.333;-2.608;-9.446;0.371;-0.119;0.066;-0.038;0.029;0.023;-0.007;2.7;-4.4;30.4;50.29;4471;2018-04-16 22:56:25:869
-2.728;-9.38;0.333;-2.608;-9.446;0.371;-0.12;0.066;-0.038;0.035;0.023;-0.013;2.6;-4.5;30.4;50.29;4481;2018-04-16 22:56:25:879
-2.806;-9.291;0.358;-2.608;-9.446;0.375;-0.198;0.155;-0.017;0.035;0.023;-0.013;2.6;-4.5;30.4;50.29;4492;2018-04-16 22:56:25:890
-2.806;-9.291;0.358;-2.608;-9.446;0.375;-0.198;0.155;-0.017;0.035;0.033;-0.012;2.6;-4.5;30.3;50.29;4501;2018-04-16 22:56:25:899
-2.875;-9.251;0.365;-2.609;-9.446;0.379;-0.271;0.173;-0.015;0.039;0.048;-0.012;2.6;-4.5;30.3;50.29;4511;2018-04-16 22:56:25:909
-2.878;-9.309;0.356;-2.609;-9.446;0.379;-0.271;0.173;-0.015;0.039;0.079;-0.009;2.6;-4.6;30.2;50.29;4521;2018-04-16 22:56:25:919
-2.878;-9.309;0.356;-2.611;-9.445;0.381;-0.251;0.087;-0.058;0.039;0.079;-0.009;2.6;-4.6;30.2;50.29;4530;2018-04-16 22:56:25:928
-2.856;-9.382;0.287;-2.611;-9.445;0.381;-0.251;0.087;-0.058;0.029;0.098;0.0;2.6;-4.6;30.3;50.29;4540;2018-04-16 22:56:25:938
-2.84;-9.373;0.249;-2.615;-9.444;0.38;-0.224;0.071;-0.131;0.023;0.087;0.007;2.6;-4.6;30.3;50.29;4551;2018-04-16 22:56:25:949
-2.84;-9.373;0.249;-2.615;-9.444;0.38;-0.224;0.071;-0.131;0.026;0.055;0.007;2.5;-4.6;30.4;50.29;4561;2018-04-16 22:56:25:959
-2.863;-9.343;0.241;-2.62;-9.442;0.385;-0.254;0.1;-0.152;0.032;0.006;0.016;2.5;-4.6;30.4;50.29;4571;2018-04-16 22:56:25:969
-2.884;-9.406;0.178;-2.624;-9.441;0.394;-0.26;0.035;-0.216;0.057;-0.051;0.022;2.4;-4.6;30.5;50.29;4581;2018-04-16 22:56:25:979
-2.884;-9.443;0.151;-2.624;-9.441;0.394;-0.26;0.035;-0.216;0.103;-0.131;0.029;2.4;-4.6;30.5;50.29;4592;2018-04-16 22:56:25:990
-2.915;-9.443;0.151;-2.63;-9.441;0.394;-0.317;-0.029;-0.277;0.18;-0.259;0.026;2.4;-4.6;30.5;50.29;4601;2018-04-16 22:56:25:999
-2.966;-9.475;0.141;-2.63;-9.437;0.433;-0.317;-0.029;-0.277;0.18;-0.259;0.026;2.4;-4.6;30.6;50.29;4611;2018-04-16 22:56:26:009
-2.978;-9.389;0.188;-2.636;-9.433;0.483;-0.342;0.044;-0.295;0.2;-0.303;0.028;2.4;-4.6;30.6;50.29;4621;2018-04-16 22:56:26:019
-2.978;-9.389;0.188;-2.636;-9.433;0.483;-0.342;0.044;-0.295;0.164;-0.253;0.043;2.3;-4.6;30.7;50.29;4631;2018-04-16 22:56:26:029
-2.922;-9.244;0.213;-2.647;-9.429;0.515;-0.259;0.179;-0.321;0.1;-0.166;0.053;2.3;-4.6;30.7;50.29;4641;2018-04-16 22:56:26:039
-2.884;-9.239;0.166;-2.652;-9.427;0.519;-0.231;0.188;-0.353;0.07;-0.125;0.056;2.3;-4.5;30.8;50.29;4652;2018-04-16 22:56:26:050
-2.884;-9.239;0.166;-2.652;-9.427;0.519;-0.231;0.188;-0.353;0.024;-0.06;0.071;2.3;-4.5;30.8;50.29;4662;2018-04-16 22:56:26:060
-2.719;-9.376;0.177;-2.667;-9.423;0.522;-0.052;0.047;-0.345;0.024;-0.06;0.071;2.3;-4.6;30.9;50.29;4671;2018-04-16 22:56:26:069
-2.482;-9.454;0.187;-2.674;-9.421;0.518;0.192;-0.033;-0.332;-0.007;-0.029;0.078;2.3;-4.6;30.9;50.29;4681;2018-04-16 22:56:26:079
-2.482;-9.454;0.187;-2.674;-9.421;0.518;0.192;-0.033;-0.332;-0.05;-0.027;0.078;2.3;-4.5;30.8;50.29;4691;2018-04-16 22:56:26:089
-2.102;-9.354;0.198;-2.683;-9.419;0.503;0.581;0.065;-0.306;-0.09;-0.039;0.072;2.3;-4.5;30.8;50.29;4702;2018-04-16 22:56:26:100
-2.102;-9.354;0.198;-2.683;-9.419;0.503;0.581;0.065;-0.306;-0.12;-0.057;0.05;2.3;-4.5;30.8;50.29;4711;2018-04-16 22:56:26:109
-2.072;-9.285;0.344;-2.685;-9.42;0.481;0.612;0.135;-0.137;-0.151;-0.076;0.009;2.3;-4.5;30.8;50.29;4721;2018-04-16 22:56:26:119
-2.136;-9.244;0.529;-2.685;-9.42;0.481;0.612;0.135;-0.137;-0.161;-0.043;-0.017;2.3;-4.5;30.7;50.29;4731;2018-04-16 22:56:26:129
-2.136;-9.252;0.613;-2.677;-9.423;0.454;0.465;0.185;0.141;-0.151;-0.01;-0.031;2.3;-4.5;30.7;50.29;4741;2018-04-16 22:56:26:139
-2.259;-9.252;0.613;-2.677;-9.423;0.454;0.465;0.185;0.141;-0.151;-0.01;-0.031;2.3;-4.5;30.7;50.84;4751;2018-04-16 22:56:26:149
-2.367;-9.297;0.546;-2.666;-9.427;0.438;0.299;0.13;0.108;-0.016;-0.066;-0.062;2.3;-4.5;30.7;50.84;4761;2018-04-16 22:56:26:159
-2.367;-9.297;0.546;-2.666;-9.427;0.438;0.299;0.13;0.108;0.093;-0.154;-0.083;2.2;-4.5;30.7;50.84;4771;2018-04-16 22:56:26:169
-2.617;-9.419;0.46;-2.648;-9.431;0.465;-0.021;-0.01;-0.026;0.093;-0.154;-0.083;2.2;-4.5;30.7;50.84;4782;2018-04-16 22:56:26:180
-2.713;-9.456;0.409;-2.64;-9.432;0.49;-0.073;-0.024;-0.08;0.194;-0.227;-0.093;2.2;-4.5;30.7;50.84;4791;2018-04-16 22:56:26:189
-2.741;-9.517;0.363;-2.64;-9.432;0.49;-0.073;-0.024;-0.08;0.244;-0.246;-0.098;2.3;-4.5;30.6;50.84;4802;2018-04-16 22:56:26:200
-2.741;-9.517;0.363;-2.619;-9.435;0.544;-0.131;-0.08;-0.219;0.244;-0.246;-0.098;2.3;-4.5;30.6;50.84;4811;2018-04-16 22:56:26:209
-2.778;-9.498;0.287;-2.619;-9.435;0.544;-0.131;-0.08;-0.219;0.206;-0.175;-0.11;2.3;-4.5;30.6;50.84;4821;2018-04-16 22:56:26:219
-2.766;-9.416;0.151;-2.597;-9.438;0.585;-0.17;0.022;-0.434;0.191;-0.133;-0.121;2.3;-4.4;30.7;50.84;4831;2018-04-16 22:56:26:229
-2.768;-9.398;0.062;-2.584;-9.438;0.585;-0.184;0.042;-0.552;0.254;-0.191;-0.125;2.3;-4.4;30.7;50.84;4842;2018-04-16 22:56:26:240
-2.768;-9.398;0.062;-2.584;-9.44;0.614;-0.184;0.042;-0.552;0.315;-0.255;-0.13;2.4;-4.4;30.7;50.84;4851;2018-04-16 22:56:26:249
-2.732;-9.443;-0.016;-2.557;-9.443;0.685;-0.149;-0.011;-0.74;0.357;-0.29;-0.133;2.4;-4.4;30.7;50.84;4862;2018-04-16 22:56:26:260
-2.614;-9.43;-0.141;-2.557;-9.443;0.685;-0.149;-0.011;-0.74;0.357;-0.29;-0.133;2.5;-4.4;30.7;50.84;4872;2018-04-16 22:56:26:270
-2.534;-9.391;-0.251;-2.528;-9.446;0.747;-0.006;0.054;-0.999;0.329;-0.237;-0.14;2.5;-4.4;30.7;50.84;4881;2018-04-16 22:56:26:279
-2.443;-9.383;-0.421;-2.528;-9.446;0.747;-0.006;0.054;-0.999;0.231;-0.116;-0.149;2.6;-4.3;30.7;50.84;4892;2018-04-16 22:56:26:290
-2.443;-9.383;-0.421;-2.499;-9.453;0.753;0.068;0.043;-1.211;0.042;0.092;-0.156;2.7;-4.2;30.6;50.84;4903;2018-04-16 22:56:26:301
-2.43;-9.54;-0.491;-2.499;-9.453;0.753;0.068;0.043;-1.211;0.042;0.092;-0.156;2.7;-4.2;30.6;50.84;4911;2018-04-16 22:56:26:309
-2.43;-9.54;-0.491;-2.471;-9.463;0.713;-0.02;-0.095;-1.17;-0.094;0.21;-0.16;2.7;-4.2;30.6;50.84;4921;2018-04-16 22:56:26:319
-2.532;-9.56;-0.366;-2.471;-9.463;0.713;-0.02;-0.095;-1.17;-0.144;0.23;-0.176;2.7;-4.1;30.5;50.84;4931;2018-04-16 22:56:26:329
-2.728;-9.361;-0.061;-2.44;-9.476;0.658;-0.289;0.114;-0.719;-0.177;0.238;-0.192;2.7;-4.1;30.5;50.84;4941;2018-04-16 22:56:26:339
-2.728;-9.361;-0.061;-2.44;-9.476;0.658;-0.289;0.114;-0.719;-0.227;0.281;-0.202;2.8;-4.1;30.4;50.84;4951;2018-04-16 22:56:26:349
-2.889;-8.928;0.096;-2.413;-9.487;0.583;-0.498;0.679;-0.463;-0.312;0.378;-0.18;2.8;-4.0;30.4;50.84;4961;2018-04-16 22:56:26:359
-2.922;-8.545;0.126;-2.413;-9.487;0.583;-0.498;0.679;-0.463;-0.352;0.407;-0.138;2.8;-4.0;30.4;50.84;4972;2018-04-16 22:56:26:370
-2.948;-8.369;0.154;-2.398;-9.496;0.491;-0.516;1.073;-0.372;-0.418;0.367;-0.032;2.8;-4.0;30.4;50.84;4982;2018-04-16 22:56:26:380
-2.948;-8.369;0.154;-2.398;-9.496;0.491;-0.516;1.073;-0.372;-0.418;0.367;-0.032;2.8;-4.0;30.4;50.84;4991;2018-04-16 22:56:26:389
-2.902;-8.452;0.142;-2.407;-9.498;0.395;-0.494;1.047;-0.253;-0.413;0.225;0.099;2.8;-4.0;30.4;50.84;5001;2018-04-16 22:56:26:399
-2.895;-8.845;0.187;-2.407;-9.498;0.395;-0.494;1.047;-0.253;-0.413;0.225;0.099;2.8;-4.0;30.3;50.84;5013;2018-04-16 22:56:26:411
-2.895;-8.845;0.187;-2.44;-9.493;0.314;-0.445;0.487;-0.108;-0.38;0.088;0.17;2.8;-4.0;30.3;50.84;5021;2018-04-16 22:56:26:419
-2.856;-9.325;0.225;-2.44;-9.493;0.314;-0.445;0.487;-0.108;-0.38;0.088;0.17;2.8;-4.0;30.3;50.84;5031;2018-04-16 22:56:26:429
-2.856;-9.325;0.225;-2.486;-9.483;0.251;-0.375;-0.136;0.025;-0.342;-0.031;0.222;2.8;-4.0;30.2;50.84;5041;2018-04-16 22:56:26:439
-2.812;-9.773;0.277;-2.486;-9.483;0.251;-0.375;-0.136;0.025;-0.307;-0.108;0.258;2.8;-4.0;30.2;50.84;5051;2018-04-16 22:56:26:449
-2.583;-10.052;0.254;-2.54;-9.47;0.209;-0.043;-0.582;0.045;-0.271;-0.181;0.293;2.8;-4.1;30.1;50.84;5061;2018-04-16 22:56:26:459
-2.583;-10.052;0.254;-2.54;-9.47;0.209;-0.043;-0.582;0.045;-0.188;-0.332;0.308;2.8;-4.1;30.1;50.2;5071;2018-04-16 22:56:26:469
-2.162;-10.236;0.15;-2.595;-9.455;0.204;0.588;-0.82;-0.045;-0.095;-0.486;0.303;2.8;-4.1;30.0;50.2;5081;2018-04-16 22:56:26:479
-1.708;-10.256;0.175;-2.595;-9.455;0.204;0.588;-0.82;-0.045;0.072;-0.727;0.25;2.8;-4.1;30.0;50.2;5091;2018-04-16 22:56:26:489
-1.708;-10.256;0.175;-2.633;-9.443;0.258;1.337;-0.704;-0.087;0.072;-0.727;0.25;2.8;-4.1;30.0;50.2;5100;2018-04-16 22:56:26:498
-0.962;-9.979;0.178;-2.633;-9.443;0.258;1.337;-0.704;-0.087;0.39;-0.99;0.182;2.8;-4.2;30.0;50.2;5111;2018-04-16 22:56:26:509
-0.354;-9.719;0.15;-2.641;-9.437;0.381;2.286;-0.282;-0.231;0.509;-0.999;0.093;2.8;-4.2;30.0;50.2;5121;2018-04-16 22:56:26:519
-0.354;-9.719;0.15;-2.641;-9.437;0.381;2.286;-0.282;-0.231;0.509;-0.999;0.093;2.8;-4.2;30.0;50.2;5132;2018-04-16 22:56:26:530
0.018;-9.363;0.043;-2.615;-9.437;0.53;2.74;0.261;-0.553;0.564;-0.881;0.005;2.8;-4.3;30.0;50.2;5141;2018-04-16 22:56:26:539
0.265;-8.875;-0.3;-2.615;-9.437;0.53;2.74;0.261;-0.553;0.547;-0.533;-0.12;2.8;-4.3;30.0;50.2;5151;2018-04-16 22:56:26:549
0.017;-8.803;-0.782;-2.575;-9.441;0.639;2.747;0.654;-1.212;0.371;-0.082;-0.254;2.9;-4.3;29.9;50.2;5161;2018-04-16 22:56:26:559
0.017;-8.803;-0.782;-2.575;-9.441;0.639;2.747;0.654;-1.212;0.209;0.138;-0.323;3.0;-4.3;29.9;50.2;5171;2018-04-16 22:56:26:569
-0.566;-9.055;-1.081;-2.509;-9.457;0.665;1.943;0.402;-1.746;0.065;0.136;-0.374;3.0;-4.3;29.9;50.2;5181;2018-04-16 22:56:26:579
-0.566;-9.055;-1.081;-2.509;-9.457;0.665;1.943;0.402;-1.746;0.065;0.136;-0.374;3.0;-4.3;29.9;50.2;5191;2018-04-16 22:56:26:589
-1.577;-9.567;-0.861;-2.426;-9.479;0.65;0.85;-0.088;-1.511;-0.032;-0.065;-0.398;3.0;-4.3;29.8;50.2;5201;2018-04-16 22:56:26:599
-1.577;-9.936;-0.366;-2.426;-9.479;0.65;0.85;-0.088;-1.511;-0.139;-0.577;-0.238;3.1;-4.4;29.8;50.2;5212;2018-04-16 22:56:26:610
-2.193;-9.936;-0.366;-2.372;-9.494;0.644;0.13;-0.43;-0.858;-0.2;-0.783;-0.159;3.1;-4.4;29.8;50.2;5222;2018-04-16 22:56:26:620
-2.544;-9.955;0.199;-2.372;-9.494;0.644;0.13;-0.43;-0.858;-0.2;-0.783;-0.159;3.1;-4.4;29.8;50.2;5231;2018-04-16 22:56:26:629
-2.923;-9.98;0.678;-2.335;-9.503;0.647;-0.588;-0.478;0.03;-0.22;-0.937;-0.138;3.2;-4.4;29.8;50.2;5241;2018-04-16 22:56:26:639
-2.923;-9.98;0.678;-2.335;-9.503;0.647;-0.588;-0.478;0.03;-0.093;-1.005;-0.095;3.3;-4.4;29.8;50.2;5251;2018-04-16 22:56:26:649
-2.983;-9.444;1.143;-2.311;-9.505;0.692;-0.672;0.061;0.452;0.046;-0.936;-0.062;3.3;-4.4;29.8;50.2;5261;2018-04-16 22:56:26:659
-2.983;-9.444;1.143;-2.304;-9.505;0.725;-0.638;0.233;0.47;0.161;-0.793;-0.064;3.4;-4.4;29.8;50.2;5271;2018-04-16 22:56:26:669
-2.983;-9.444;1.143;-2.304;-9.505;0.725;-0.638;0.233;0.47;0.161;-0.793;-0.064;3.4;-4.4;29.8;50.2;5281;2018-04-16 22:56:26:679
-2.831;-9.014;1.166;-2.295;-9.503;0.768;-0.536;0.489;0.398;0.255;-0.6;-0.064;3.6;-4.4;29.7;50.2;5291;2018-04-16 22:56:26:689
-2.601;-9.055;0.746;-2.285;-9.498;0.857;-0.317;0.443;-0.111;0.439;-0.16;-0.054;3.6;-4.4;29.7;50.2;5301;2018-04-16 22:56:26:699
-2.601;-9.055;0.746;-2.285;-9.498;0.857;-0.317;0.443;-0.111;0.439;-0.16;-0.054;3.8;-4.4;29.8;50.2;5311;2018-04-16 22:56:26:709
-2.459;-9.248;0.265;-2.276;-9.491;0.959;-0.145;0.16;-0.786;0.54;-0.099;-0.05;3.8;-4.4;29.8;50.2;5321;2018-04-16 22:56:26:719
-2.308;-9.534;-0.043;-2.276;-9.491;0.959;-0.145;0.16;-0.786;0.602;-0.156;-0.044;4.1;-4.2;29.8;50.2;5333;2018-04-16 22:56:26:731
-2.1;-9.732;-0.305;-2.263;-9.481;1.08;0.091;-0.198;-1.315;0.637;-0.282;-0.04;4.4;-4.0;29.8;50.2;5341;2018-04-16 22:56:26:739
-2.1;-9.732;-0.305;-2.263;-9.481;1.08;0.091;-0.198;-1.315;0.618;-0.369;-0.044;4.4;-4.0;29.8;50.2;5351;2018-04-16 22:56:26:749
-2.023;-9.795;-0.357;-2.245;-9.471;1.196;0.32;-0.313;-1.551;0.573;-0.426;-0.043;4.5;-4.0;29.7;50.2;5361;2018-04-16 22:56:26:759
-1.776;-9.667;-0.263;-2.245;-9.471;1.196;0.32;-0.313;-1.551;0.573;-0.426;-0.043;4.5;-4.0;29.7;50.2;5372;2018-04-16 22:56:26:770
-1.741;-9.683;0.069;-2.217;-9.464;1.296;0.477;-0.219;-1.227;0.503;-0.445;-0.067;4.8;-3.7;29.7;52.31;5381;2018-04-16 22:56:26:779
-1.741;-9.683;0.069;-2.217;-9.464;1.296;0.477;-0.219;-1.227;0.425;-0.247;-0.087;5.0;-3.6;29.6;52.31;5393;2018-04-16 22:56:26:791
-1.719;-9.632;0.863;-2.193;-9.46;1.367;0.474;-0.172;-0.504;0.359;0.046;-0.098;5.0;-3.6;29.6;52.31;5401;2018-04-16 22:56:26:799
-1.719;-9.632;0.863;-2.193;-9.46;1.367;0.474;-0.172;-0.504;0.359;0.046;-0.098;5.0;-3.6;29.6;52.31;5411;2018-04-16 22:56:26:809
-1.633;-9.367;1.196;-2.173;-9.46;1.399;0.511;0.034;-0.127;0.305;0.564;-0.165;5.4;-3.3;29.5;52.31;5421;2018-04-16 22:56:26:819
-1.762;-9.494;1.178;-2.173;-9.46;1.399;0.511;0.034;-0.127;0.413;1.114;-0.239;5.6;-3.0;29.4;52.31;5431;2018-04-16 22:56:26:829
-1.851;-9.533;0.528;-2.156;-9.46;1.426;0.323;-0.033;-0.623;0.484;1.256;-0.265;5.6;-3.0;29.4;52.31;5441;2018-04-16 22:56:26:839
-1.851;-9.533;0.528;-2.156;-9.46;1.426;0.323;-0.033;-0.623;0.484;1.256;-0.265;5.6;-3.0;29.4;52.31;5451;2018-04-16 22:56:26:849
-1.86;-9.489;0.083;-2.135;-9.46;1.459;0.278;0.001;-1.515;0.535;1.284;-0.292;5.8;-2.7;29.2;52.31;5462;2018-04-16 22:56:26:860
-1.926;-9.297;-0.438;-2.135;-9.46;1.459;0.278;0.001;-1.515;0.586;1.136;-0.301;5.9;-2.4;29.2;52.31;5472;2018-04-16 22:56:26:870
-1.926;-9.297;-0.438;-2.109;-9.457;1.515;0.099;0.203;-2.073;0.662;0.847;-0.269;5.9;-2.4;29.2;52.31;5481;2018-04-16 22:56:26:879
-2.023;-9.256;-0.498;-2.109;-9.457;1.515;0.099;0.203;-2.073;0.662;0.847;-0.269;5.9;-2.4;29.2;52.31;5491;2018-04-16 22:56:26:889
-1.943;-9.249;-0.426;-2.09;-9.449;1.586;0.147;0.2;-2.012;0.641;0.726;-0.226;6.0;-2.2;29.2;52.31;5501;2018-04-16 22:56:26:899
-1.757;-9.483;-0.529;-2.09;-9.449;1.586;0.147;0.2;-2.012;0.456;0.739;-0.104;6.0;-1.9;29.1;52.31;5511;2018-04-16 22:56:26:909
-1.757;-9.483;-0.529;-2.09;-9.449;1.586;0.147;0.2;-2.012;0.456;0.739;-0.104;6.0;-1.9;29.1;52.31;5521;2018-04-16 22:56:26:919
-1.538;-9.789;-0.706;-2.103;-9.443;1.603;0.415;-0.156;-2.197;0.292;0.795;-0.001;6.0;-1.7;29.1;52.31;5531;2018-04-16 22:56:26:929
-1.243;-10.248;-0.899;-2.145;-9.437;1.587;0.851;-0.665;-2.44;0.142;0.72;0.148;5.9;-1.3;29.1;52.31;5546;2018-04-16 22:56:26:944
-1.243;-10.248;-0.899;-2.145;-9.437;1.587;0.851;-0.665;-2.44;0.142;0.72;0.148;5.9;-1.3;29.1;52.31;5551;2018-04-16 22:56:26:949
-0.897;-11.037;-0.985;-2.168;-9.431;1.588;1.091;-1.205;-2.536;0.159;0.431;0.199;5.8;-1.0;28.9;52.31;5561;2018-04-16 22:56:26:959
-0.897;-11.037;-0.985;-2.218;-9.417;1.605;1.501;-1.968;-2.717;0.159;0.431;0.199;5.8;-1.0;28.9;52.31;5570;2018-04-16 22:56:26:968
-0.618;-11.551;-1.205;-2.218;-9.417;1.605;1.501;-1.968;-2.717;0.189;0.202;0.22;5.8;-1.0;28.9;52.31;5581;2018-04-16 22:56:26:979
-0.163;-12.037;-1.524;-2.26;-9.403;1.625;2.097;-2.634;-3.149;0.161;0.159;0.197;5.6;-0.6;28.8;52.31;5590;2018-04-16 22:56:26:988
-0.163;-12.037;-1.524;-2.26;-9.403;1.625;2.097;-2.634;-3.149;0.056;0.177;0.144;5.6;-0.6;28.8;52.31;5601;2018-04-16 22:56:26:999
0.401;-12.294;-1.435;-2.28;-9.404;1.591;2.803;-2.923;-2.953;-0.123;0.243;0.064;5.4;-0.2;28.5;52.31;5610;2018-04-16 22:56:27:008
0.682;-12.341;-1.191;-2.276;-9.414;1.539;2.989;-2.927;-2.639;-0.345;0.298;-0.031;5.3;0.0;28.5;52.31;5621;2018-04-16 22:56:27:019
0.743;-12.209;-0.95;-2.276;-9.414;1.539;2.989;-2.927;-2.639;-0.615;0.16;-0.167;5.3;0.0;28.5;52.31;5631;2018-04-16 22:56:27:029
0.743;-12.209;-0.95;-2.236;-9.444;1.408;2.661;-2.315;-2.408;-0.734;-0.065;-0.255;5.3;0.0;28.5;52.31;5641;2018-04-16 22:56:27:039
0.045;-11.51;-1.061;-2.236;-9.444;1.408;2.661;-2.315;-2.408;-0.817;-0.529;-0.38;5.0;0.3;28.5;52.31;5651;2018-04-16 22:56:27:049
-1.827;-10.734;-1.738;-2.153;-9.482;1.277;0.326;-1.253;-3.015;-0.822;-0.665;-0.369;4.8;0.6;28.5;52.31;5661;2018-04-16 22:56:27:059
-1.827;-10.734;-1.738;-2.153;-9.482;1.277;0.326;-1.253;-3.015;-0.822;-0.797;-0.303;4.8;0.6;28.5;52.31;5671;2018-04-16 22:56:27:069
-4.092;-10.205;-4.457;-2.076;-9.52;1.106;-2.015;-0.685;-5.563;-1.018;-0.797;-0.303;4.8;0.6;28.5;52.31;5681;2018-04-16 22:56:27:079
-4.092;-10.205;-4.457;-2.076;-9.52;1.106;-2.015;-0.685;-5.563;-1.425;-0.617;-0.282;4.6;0.8;28.4;52.31;5691;2018-04-16 22:56:27:089
-5.409;-10.49;-4.223;-2.076;-9.52;1.106;-2.015;-0.685;-5.563;-1.425;-0.617;-0.282;4.6;0.8;28.4;52.31;5701;2018-04-16 22:56:27:099
-5.188;-10.727;-1.803;-2.033;-9.565;0.739;-3.447;-1.004;-4.271;-2.21;-0.151;-0.159;4.4;1.0;28.4;52.31;5711;2018-04-16 22:56:27:109
-5.188;-10.727;-1.803;-2.032;-9.591;0.223;-2.825;-1.357;-0.404;-2.712;0.327;0.013;4.4;1.0;28.4;52.31;5720;2018-04-16 22:56:27:118
-4.667;-11.086;0.894;-2.032;-9.591;0.223;-2.825;-1.357;-0.404;-2.712;0.327;0.013;4.1;1.0;28.4;51.31;5731;2018-04-16 22:56:27:129
-4.667;-11.086;0.894;-2.048;-9.586;-0.283;-1.734;-1.67;2.99;-2.56;0.343;0.084;4.1;1.0;28.4;51.31;5741;2018-04-16 22:56:27:139
-3.314;-11.261;3.413;-2.048;-9.586;-0.283;-1.734;-1.67;2.99;-2.353;0.303;0.092;3.8;0.9;28.4;51.31;5750;2018-04-16 22:56:27:148
-3.517;-11.495;4.445;-2.048;-9.564;-0.711;-1.469;-1.931;5.156;-2.184;0.338;0.016;3.8;0.9;28.4;51.31;5761;2018-04-16 22:56:27:159
-3.517;-11.495;4.445;-2.048;-9.564;-0.711;-1.469;-1.931;5.156;-2.027;0.516;-0.007;3.6;0.7;28.4;51.31;5771;2018-04-16 22:56:27:169
-4.225;-11.486;5.029;-2.042;-9.528;-1.101;-2.412;-1.909;6.426;-1.884;0.755;0.039;3.5;0.6;28.4;51.31;5781;2018-04-16 22:56:27:179
-4.672;-11.147;5.091;-2.042;-9.528;-1.101;-2.412;-1.909;6.426;-1.636;1.371;0.104;3.5;0.6;28.4;51.31;5791;2018-04-16 22:56:27:189
-4.672;-11.147;5.091;-2.018;-9.484;-1.466;-2.237;-0.968;5.083;-1.515;1.896;0.103;3.3;0.3;28.3;51.31;5801;2018-04-16 22:56:27:199
-4.128;-10.165;3.475;-2.018;-9.484;-1.466;-2.237;-0.968;5.083;-1.515;1.896;0.103;3.2;0.1;28.3;51.31;5811;2018-04-16 22:56:27:209
-4.128;-10.165;3.475;-1.949;-9.436;-1.826;-2.065;-0.33;4.919;-1.384;2.399;0.017;3.2;0.1;28.3;51.31;5821;2018-04-16 22:56:27:219
-3.88;-9.59;2.541;-1.949;-9.436;-1.826;-2.065;-0.33;4.919;-1.26;2.564;0.012;3.0;-0.3;28.2;51.31;5831;2018-04-16 22:56:27:229
-3.88;-9.59;2.541;-1.86;-9.391;-2.128;-1.379;0.346;3.184;-1.152;2.571;0.009;3.0;-0.3;28.2;51.31;5841;2018-04-16 22:56:27:239
-3.075;-9.424;-0.849;-1.86;-9.391;-2.128;-1.379;0.346;3.184;-0.965;1.631;0.086;2.1;-1.8;28.5;51.31;5851;2018-04-16 22:56:27:249
-0.821;-10.186;-6.91;-1.808;-9.345;-2.359;0.987;-0.841;-4.55;-0.965;1.631;0.086;2.1;-1.8;28.5;51.31;5861;2018-04-16 22:56:27:259
-0.821;-10.186;-6.91;-1.808;-9.345;-2.359;0.987;-0.841;-4.55;-0.729;0.419;0.112;0.7;-3.3;28.4;51.31;5871;2018-04-16 22:56:27:269
-0.181;-9.501;-1.586;-1.793;-9.332;-2.421;1.568;-0.186;1.754;-0.182;-0.042;-0.099;0.0;-4.7;27.8;51.31;5881;2018-04-16 22:56:27:279
-0.573;-9.448;0.678;-1.793;-9.332;-2.421;1.568;-0.186;1.754;-0.182;-0.042;-0.099;0.0;-4.7;27.8;51.31;5892;2018-04-16 22:56:27:290
-0.573;-9.448;0.678;-1.656;-9.363;-2.399;0.916;0.088;3.307;0.283;1.647;-0.467;0.0;-4.7;27.8;51.31;5901;2018-04-16 22:56:27:299
-0.989;-9.276;0.913;-1.656;-9.363;-2.399;0.916;0.088;3.307;0.4;2.542;-0.605;-0.5;-5.1;29.2;51.31;5912;2018-04-16 22:56:27:310
-1.323;-8.815;-0.654;-1.401;-9.408;-2.386;0.078;0.593;1.733;0.575;3.012;-0.701;-1.3;-4.9;27.7;51.31;5921;2018-04-16 22:56:27:319
-1.323;-8.815;-0.654;-1.401;-9.408;-2.386;0.078;0.593;1.733;0.575;3.012;-0.701;-1.3;-4.9;27.7;51.31;5931;2018-04-16 22:56:27:329
-1.955;-8.143;-2.265;-1.152;-9.455;-2.332;-0.878;1.423;-0.059;0.641;2.266;-0.649;-1.3;-4.9;27.7;51.31;5940;2018-04-16 22:56:27:338
-2.071;-7.811;-2.272;-1.152;-9.455;-2.332;-0.878;1.423;-0.059;0.641;2.266;-0.649;-2.5;-5.6;27.7;51.31;5952;2018-04-16 22:56:27:350
-2.907;-7.444;-2.896;-1.007;-9.493;-2.244;-1.899;2.05;-0.652;0.6;0.86;-0.578;-3.1;-5.0;27.8;51.31;5961;2018-04-16 22:56:27:359
-2.907;-7.444;-2.896;-1.007;-9.493;-2.244;-1.899;2.05;-0.652;0.156;-0.397;-0.453;-3.1;-5.0;27.8;51.31;5971;2018-04-16 22:56:27:369
-3.728;-6.098;-1.544;-0.961;-9.498;-2.245;-2.921;3.744;0.95;-0.238;-0.613;-0.298;-3.7;-5.9;27.3;51.31;5981;2018-04-16 22:56:27:379
-4.356;-4.937;0.375;-0.961;-9.498;-2.245;-2.921;3.744;0.95;-0.814;-0.689;-0.088;-3.5;-6.1;27.9;51.31;5994;2018-04-16 22:56:27:392
-4.356;-4.937;0.375;-0.977;-9.462;-2.386;-3.444;4.682;3.216;-0.814;-0.689;-0.088;-3.5;-6.1;27.9;51.31;6001;2018-04-16 22:56:27:399
-4.25;-4.438;0.84;-0.977;-9.462;-2.386;-3.444;4.682;3.216;-1.037;-0.479;0.038;-3.5;-6.1;27.9;51.31;6011;2018-04-16 22:56:27:409
-4.25;-4.438;0.84;-1.006;-9.404;-2.593;-2.928;4.977;2.452;-1.119;-0.122;0.117;-3.5;-6.6;27.5;51.31;6021;2018-04-16 22:56:27:419
-3.579;-4.572;-0.983;-1.006;-9.404;-2.593;-2.928;4.977;2.452;-1.109;0.093;0.15;-3.5;-6.6;27.5;51.31;6030;2018-04-16 22:56:27:428
-2.608;-5.203;-1.553;-1.04;-9.349;-2.774;-1.569;4.146;1.221;-0.889;-0.158;0.167;-3.4;-6.7;27.8;51.31;6041;2018-04-16 22:56:27:439
-2.608;-5.203;-1.553;-1.04;-9.349;-2.774;-1.569;4.146;1.221;-0.889;-0.158;0.167;-3.4;-6.7;27.8;53.45;6051;2018-04-16 22:56:27:449
-1.147;-5.898;-1.648;-1.108;-9.322;-2.837;0.445;3.225;1.108;-0.414;-0.561;0.199;-3.6;-6.7;27.5;53.45;6061;2018-04-16 22:56:27:459
0.086;-6.574;-2.071;-1.108;-9.322;-2.837;0.445;3.225;1.108;0.04;-0.668;0.21;-3.6;-6.7;27.5;53.45;6071;2018-04-16 22:56:27:469
0.955;-7.715;-3.062;-1.184;-9.325;-2.794;1.853;2.103;0.14;0.241;-0.644;0.216;-3.6;-6.9;28.2;53.45;6081;2018-04-16 22:56:27:479
1.422;-8.413;-3.621;-1.184;-9.325;-2.794;1.853;2.103;0.14;0.412;-0.72;0.299;-3.8;-7.0;27.9;53.45;6091;2018-04-16 22:56:27:489
1.422;-8.413;-3.621;-1.26;-9.34;-2.712;2.807;0.695;-1.085;0.442;-0.814;0.326;-3.8;-7.0;27.9;53.45;6101;2018-04-16 22:56:27:499
1.793;-9.499;-4.347;-1.26;-9.34;-2.712;2.807;0.695;-1.085;0.442;-0.814;0.326;-3.8;-7.0;27.9;53.45;6111;2018-04-16 22:56:27:509
2.188;-10.544;-4.842;-1.364;-9.354;-2.608;3.433;-0.865;-2.03;0.44;-0.925;0.319;-4.2;-7.1;27.8;53.45;6121;2018-04-16 22:56:27:519
2.188;-10.544;-4.842;-1.364;-9.354;-2.608;3.433;-0.865;-2.03;0.36;-1.036;0.214;-4.2;-7.1;27.8;53.45;6131;2018-04-16 22:56:27:529
2.029;-11.043;-5.364;-1.446;-9.365;-2.525;3.314;-1.886;-2.896;0.227;-1.04;0.094;-4.6;-7.2;27.7;53.45;6141;2018-04-16 22:56:27:539
1.498;-11.388;-4.806;-1.446;-9.365;-2.525;3.314;-1.886;-2.896;0.051;-0.937;-0.079;-4.8;-7.2;27.6;53.45;6152;2018-04-16 22:56:27:550
1.093;-10.544;-3.789;-1.475;-9.371;-2.487;2.717;-1.543;-1.589;0.016;-0.825;-0.195;-4.8;-7.2;27.6;53.45;6161;2018-04-16 22:56:27:559
1.093;-10.544;-3.789;-1.475;-9.371;-2.487;2.717;-1.543;-1.589;0.016;-0.825;-0.195;-4.9;-7.1;27.5;53.45;6171;2018-04-16 22:56:27:569
0.534;-10.033;-3.931;-1.447;-9.38;-2.469;1.981;-0.653;-1.462;-0.011;-0.551;-0.364;-4.9;-7.1;27.5;53.45;6180;2018-04-16 22:56:27:578
-0.051;-9.935;-5.399;-1.447;-9.38;-2.469;1.981;-0.653;-1.462;-0.057;-0.202;-0.407;-4.9;-7.1;27.4;53.45;6191;2018-04-16 22:56:27:589
-0.051;-9.935;-5.399;-1.381;-9.388;-2.475;1.257;-0.474;-3.737;-0.057;-0.202;-0.407;-4.9;-7.1;27.4;53.45;6200;2018-04-16 22:56:27:598
-0.244;-9.677;-7.817;-1.381;-9.388;-2.475;1.257;-0.474;-3.737;-0.087;-0.066;-0.396;-4.9;-7.1;27.4;53.45;6210;2018-04-16 22:56:27:608
-0.244;-9.677;-7.817;-1.317;-9.395;-2.485;0.724;-0.222;-6.252;-0.077;-0.138;-0.386;-4.9;-6.9;27.3;53.45;6220;2018-04-16 22:56:27:618
-0.735;-9.653;-8.211;-1.317;-9.395;-2.485;0.724;-0.222;-6.252;-0.035;-0.364;-0.373;-4.9;-6.9;27.3;53.45;6230;2018-04-16 22:56:27:628
-2.218;-9.693;-4.146;-1.282;-9.41;-2.446;-0.936;-0.283;-1.699;0.11;-0.648;-0.354;-4.9;-7.0;27.2;53.45;6241;2018-04-16 22:56:27:639
-2.218;-9.693;-4.146;-1.282;-9.41;-2.446;-0.936;-0.283;-1.699;0.313;-0.652;-0.274;-4.9;-7.0;27.2;53.45;6251;2018-04-16 22:56:27:649
-4.997;-9.691;-0.123;-1.29;-9.431;-2.359;-4.535;-0.217;2.973;0.448;-0.121;0.062;-4.7;-7.0;27.2;53.45;6261;2018-04-16 22:56:27:659
-7.165;-9.789;0.992;-1.29;-9.431;-2.359;-4.535;-0.217;2.973;0.47;0.132;0.414;-4.4;-6.9;27.3;53.45;6271;2018-04-16 22:56:27:669
-7.165;-9.789;0.992;-1.365;-9.441;-2.275;-7.233;-1.544;1.835;0.47;0.132;0.414;-4.4;-6.9;27.3;53.45;6281;2018-04-16 22:56:27:679
-9.366;-12.267;-3.539;-1.365;-9.441;-2.275;-7.233;-1.544;1.835;0.404;0.13;0.602;-4.4;-6.9;27.3;53.45;6290;2018-04-16 22:56:27:688
-7.709;-15.68;-8.708;-1.505;-9.432;-2.223;-6.204;-6.248;-6.484;0.242;-0.148;0.7;-4.2;-6.8;27.4;53.45;6300;2018-04-16 22:56:27:698
-7.709;-15.68;-8.708;-1.571;-9.426;-2.2;-4.547;-6.752;-3.281;0.092;-0.896;0.626;-4.1;-6.8;27.4;53.45;6311;2018-04-16 22:56:27:709
-3.464;-13.387;0.018;-1.571;-9.426;-2.2;-4.547;-6.752;-3.281;0.092;-0.896;0.626;-4.1;-6.8;27.4;53.45;6321;2018-04-16 22:56:27:719
-3.029;-7.643;3.634;-1.606;-9.428;-2.169;-1.384;-2.344;3.533;0.235;-0.385;0.247;-3.9;-6.6;27.4;53.45;6331;2018-04-16 22:56:27:729
-3.029;-7.643;3.634;-1.565;-9.449;-2.106;-1.678;3.787;4.679;0.507;1.244;-0.021;-3.9;-6.6;27.4;53.45;6341;2018-04-16 22:56:27:739
-2.962;-5.096;1.798;-1.565;-9.449;-2.106;-1.678;3.787;4.679;0.507;1.244;-0.021;-3.7;-6.3;27.5;53.45;6351;2018-04-16 22:56:27:749
-2.546;-4.873;0.602;-1.557;-9.469;-2.022;-0.99;4.595;2.624;0.635;1.147;0.188;-3.7;-6.3;27.5;53.45;6361;2018-04-16 22:56:27:759
-2.546;-4.873;0.602;-1.557;-9.469;-2.022;-0.99;4.595;2.624;0.623;0.638;0.435;-3.5;-6.0;27.6;55.46;6371;2018-04-16 22:56:27:769
-2.749;-6.488;0.831;-1.639;-9.476;-1.921;-1.249;2.44;2.782;0.584;0.27;0.602;-3.5;-6.0;27.6;55.46;6381;2018-04-16 22:56:27:779
-3.135;-8.001;0.802;-1.639;-9.476;-1.921;-1.249;2.44;2.782;0.507;-0.045;0.772;-3.4;-5.8;27.5;55.46;6391;2018-04-16 22:56:27:789
-3.536;-10.153;1.022;-1.812;-9.462;-1.833;-1.725;-0.691;2.856;0.302;-0.277;0.913;-3.4;-5.8;27.5;55.46;6401;2018-04-16 22:56:27:799
-3.545;-10.825;1.113;-1.903;-9.442;-1.841;-1.58;-1.937;3.015;-0.005;-0.331;0.988;-3.3;-5.5;27.5;55.46;6415;2018-04-16 22:56:27:813
-3.545;-10.825;1.113;-1.903;-9.442;-1.841;-1.58;-1.937;3.015;-0.566;-0.508;0.866;-3.3;-5.5;27.5;55.46;6421;2018-04-16 22:56:27:819
-3.105;-12.279;0.725;-2.086;-9.388;-1.922;-1.02;-2.891;2.647;-0.566;-0.508;0.866;-3.3;-5.5;27.5;55.46;6431;2018-04-16 22:56:27:829
-2.99;-11.843;0.442;-2.18;-9.355;-1.974;-0.81;-2.488;2.415;-0.745;-1.04;0.71;-3.2;-5.1;27.6;55.46;6441;2018-04-16 22:56:27:839
-2.99;-11.843;0.442;-2.18;-9.355;-1.974;-0.81;-2.488;2.415;-0.745;-1.04;0.71;-3.2;-5.1;27.6;55.46;6451;2018-04-16 22:56:27:849
-2.027;-10.335;0.711;-2.37;-9.295;-2.038;0.638;-0.676;2.858;-0.689;-1.758;0.685;-3.1;-4.8;27.6;55.46;6461;2018-04-16 22:56:27:859
-1.074;-9.179;1.168;-2.37;-9.295;-2.038;0.638;-0.676;2.858;-0.689;-1.758;0.685;-3.1;-4.8;27.6;55.46;6471;2018-04-16 22:56:27:869
-1.074;-9.179;1.168;-2.58;-9.275;-1.867;2.246;1.087;3.241;0.004;-2.261;0.651;-3.0;-4.6;27.6;55.46;6481;2018-04-16 22:56:27:879
-0.069;-8.157;1.313;-2.58;-9.275;-1.867;2.246;1.087;3.241;1.703;-3.12;0.595;-3.0;-4.6;27.6;55.46;6491;2018-04-16 22:56:27:889
-0.31;-9.359;0.843;-2.722;-9.343;-1.213;2.412;-0.016;2.056;2.665;-3.225;0.318;-2.9;-4.3;27.7;55.46;6501;2018-04-16 22:56:27:899
-0.31;-9.359;0.843;-2.722;-9.343;-1.213;2.412;-0.016;2.056;2.584;-2.286;-0.193;-2.9;-4.3;27.7;55.46;6511;2018-04-16 22:56:27:909
-1.511;-10.076;1.283;-2.701;-9.403;-0.671;1.139;-0.558;2.079;2.14;-1.224;-0.26;-2.7;-4.0;27.7;55.46;6521;2018-04-16 22:56:27:919
-1.365;-9.604;1.346;-2.68;-9.419;-0.522;1.537;0.016;1.707;1.662;0.007;-0.156;-2.5;-3.9;27.8;55.46;6532;2018-04-16 22:56:27:930
-0.776;-8.999;0.53;-2.68;-9.419;-0.522;1.537;0.016;1.707;1.221;1.091;-0.117;-2.5;-3.9;27.8;55.46;6541;2018-04-16 22:56:27:939
-0.776;-8.999;0.53;-2.639;-9.437;-0.391;1.707;0.721;0.349;1.221;1.091;-0.117;-2.2;-3.4;27.8;55.46;6551;2018-04-16 22:56:27:949
-1.097;-8.614;-0.188;-2.611;-9.446;-0.366;1.328;0.896;-0.046;0.816;1.955;-0.173;-2.1;-3.2;27.7;55.46;6562;2018-04-16 22:56:27:960
-1.555;-8.534;-0.949;-2.611;-9.446;-0.366;1.328;0.896;-0.046;0.981;1.814;-0.21;-2.1;-3.2;27.7;55.46;6571;2018-04-16 22:56:27:969
-1.555;-8.939;-1.482;-2.559;-9.464;-0.233;0.648;0.76;-1.108;1.243;1.214;-0.235;-1.8;-2.7;27.7;55.46;6581;2018-04-16 22:56:27:979
-2.253;-8.939;-1.482;-2.559;-9.464;-0.233;0.648;0.76;-1.108;1.243;1.214;-0.235;-1.8;-2.7;27.7;55.46;6591;2018-04-16 22:56:27:989
-2.617;-9.232;-1.666;-2.524;-9.476;0.04;-0.093;0.244;-1.707;1.561;-0.67;-0.094;-1.7;-2.2;27.6;55.46;6601;2018-04-16 22:56:27:999
-2.282;-8.659;-1.58;-2.524;-9.476;0.04;-0.093;0.244;-1.707;1.561;-0.67;-0.094;-1.6;-1.8;27.6;55.46;6612;2018-04-16 22:56:28:010
-2.282;-8.659;-1.58;-2.514;-9.472;0.371;0.173;0.794;-1.907;1.466;-1.26;-0.013;-1.6;-1.8;27.6;55.46;6622;2018-04-16 22:56:28:020
-2.379;-8.885;-1.431;-2.514;-9.472;0.371;0.173;0.794;-1.907;1.466;-1.26;-0.013;-1.6;-1.8;27.6;55.46;6631;2018-04-16 22:56:28:029
-2.379;-8.885;-1.431;-2.502;-9.46;0.642;0.159;0.312;-1.806;1.232;-1.164;-0.01;-1.4;-1.3;27.6;55.46;6641;2018-04-16 22:56:28:039
-2.315;-9.294;-0.915;-2.502;-9.46;0.642;0.159;0.312;-1.806;0.816;-0.716;0.031;-1.1;-0.3;27.3;55.46;6652;2018-04-16 22:56:28:050
-2.016;-9.278;-0.663;-2.505;-9.449;0.778;0.489;0.172;-1.441;0.507;-0.404;0.09;-1.1;-0.3;27.3;55.46;6661;2018-04-16 22:56:28:059
-2.016;-9.278;-0.663;-2.505;-9.449;0.778;0.489;0.172;-1.441;0.507;-0.404;0.09;-1.1;-0.3;27.3;55.46;6671;2018-04-16 22:56:28:069
-1.781;-9.014;-0.312;-2.525;-9.441;0.814;0.749;0.562;-1.015;0.037;-0.27;0.166;-0.7;0.6;27.1;55.46;6681;2018-04-16 22:56:28:079
-1.753;-8.698;-0.022;-2.525;-9.441;0.814;0.749;0.562;-1.015;0.037;-0.27;0.166;-0.7;0.6;27.1;55.34;6691;2018-04-16 22:56:28:089
-1.753;-8.607;0.28;-2.549;-9.432;0.838;0.714;0.826;-0.67;0.062;-0.562;0.169;-0.5;1.0;26.9;55.34;6701;2018-04-16 22:56:28:099
-1.896;-8.607;0.28;-2.549;-9.432;0.838;0.714;0.826;-0.67;0.062;-0.562;0.169;-0.5;1.0;26.9;55.34;6711;2018-04-16 22:56:28:109
-2.116;-8.705;0.49;-2.563;-9.421;0.923;0.447;0.715;-0.433;0.211;-0.766;0.154;-0.2;1.4;27.1;55.34;6720;2018-04-16 22:56:28:118
-2.116;-8.705;0.49;-2.563;-9.421;0.923;0.447;0.715;-0.433;0.491;-1.004;0.116;-0.2;1.4;27.1;55.34;6731;2018-04-16 22:56:28:129
-2.498;-9.805;0.85;-2.56;-9.399;1.128;0.114;-0.576;-0.296;0.789;-1.162;0.105;0.1;2.2;27.0;55.34;6740;2018-04-16 22:56:28:138
-2.116;-10.196;0.704;-2.56;-9.399;1.128;0.114;-0.576;-0.296;0.942;-1.148;0.126;0.1;2.2;27.0;55.34;6751;2018-04-16 22:56:28:149
-2.116;-10.196;0.704;-2.559;-9.372;1.336;0.815;-0.527;-0.714;0.896;-0.981;0.15;0.3;2.2;26.9;55.34;6760;2018-04-16 22:56:28:158
-1.607;-9.692;0.628;-2.559;-9.372;1.336;0.815;-0.527;-0.714;0.745;-0.715;0.128;0.3;2.2;26.9;55.34;6771;2018-04-16 22:56:28:169
-1.405;-8.99;0.723;-2.556;-9.352;1.476;1.192;0.516;-0.728;0.635;-0.445;0.082;0.4;2.7;26.6;55.34;6781;2018-04-16 22:56:28:179
-1.381;-8.781;0.742;-2.556;-9.352;1.476;1.192;0.516;-0.728;0.662;-0.241;0.022;0.5;2.7;26.7;55.34;6791;2018-04-16 22:56:28:189
-1.374;-9.025;0.463;-2.541;-9.332;1.62;1.166;0.307;-1.157;0.81;-0.031;-0.073;0.5;2.7;26.7;55.34;6801;2018-04-16 22:56:28:199
-1.374;-9.025;0.463;-2.541;-9.332;1.62;1.166;0.307;-1.157;0.815;0.077;-0.145;0.7;3.4;26.7;55.34;6811;2018-04-16 22:56:28:209
-1.367;-9.548;-0.068;-2.502;-9.321;1.742;1.135;-0.227;-1.81;0.815;0.077;-0.145;0.7;3.7;26.6;55.34;6821;2018-04-16 22:56:28:219
-1.367;-9.548;-0.068;-2.502;-9.321;1.742;1.135;-0.227;-1.81;0.677;0.137;-0.252;0.7;3.7;26.6;55.34;6831;2018-04-16 22:56:28:229
-1.718;-10.069;-0.283;-2.446;-9.318;1.835;0.66;-0.878;-2.1;0.588;0.112;-0.301;0.7;4.2;26.3;55.34;6841;2018-04-16 22:56:28:239
-1.839;-10.455;-0.242;-2.446;-9.318;1.835;0.66;-0.878;-2.1;0.527;0.059;-0.342;0.7;4.2;26.3;55.34;6851;2018-04-16 22:56:28:249
-1.839;-10.455;-0.242;-2.38;-9.316;1.929;0.446;-1.584;-2.237;0.527;0.04;-0.381;0.8;4.7;26.2;55.34;6860;2018-04-16 22:56:28:258
-2.181;-11.307;-0.274;-2.38;-9.316;1.929;0.446;-1.584;-2.237;0.535;0.065;-0.446;0.8;4.7;26.2;55.34;6871;2018-04-16 22:56:28:269
-2.559;-11.981;-0.142;-2.298;-9.317;2.022;-0.345;-2.829;-2.15;0.534;0.188;-0.478;0.8;5.2;26.1;55.34;6882;2018-04-16 22:56:28:280
-2.559;-12.341;-0.272;-2.266;-9.318;2.053;-0.294;-3.023;-2.324;0.467;0.403;-0.472;1.0;5.6;26.0;55.34;6891;2018-04-16 22:56:28:289
-2.559;-12.341;-0.272;-2.266;-9.318;2.053;-0.294;-3.023;-2.324;0.467;0.403;-0.472;1.0;5.6;26.0;55.34;6901;2018-04-16 22:56:28:299
-1.678;-12.609;-0.941;-2.214;-9.326;2.073;0.536;-3.283;-3.014;0.281;0.74;-0.432;1.0;5.6;26.0;55.34;6911;2018-04-16 22:56:28:309
-1.239;-12.956;-1.183;-2.192;-9.335;2.056;0.953;-3.621;-3.239;0.127;0.852;-0.417;1.0;6.1;25.8;55.34;6921;2018-04-16 22:56:28:319
-1.239;-12.956;-1.183;-2.192;-9.335;2.056;0.953;-3.621;-3.239;-0.144;0.766;-0.417;1.0;6.1;25.8;55.34;6931;2018-04-16 22:56:28:329
-0.798;-13.418;-1.507;-2.135;-9.364;1.984;1.29;-4.195;-3.576;-0.301;0.527;-0.447;1.1;6.6;25.6;55.34;6941;2018-04-16 22:56:28:339
-1.006;-13.585;-1.854;-2.135;-9.364;1.984;1.29;-4.195;-3.576;-0.469;0.228;-0.479;1.1;6.6;25.6;55.34;6951;2018-04-16 22:56:28:349
-1.006;-13.585;-1.854;-2.047;-9.406;1.87;0.596;-3.687;-4.165;-0.684;-0.023;-0.505;1.1;7.0;25.5;55.34;6962;2018-04-16 22:56:28:360
-1.923;-12.646;-2.567;-2.047;-9.406;1.87;0.596;-3.687;-4.165;-0.684;-0.023;-0.505;1.0;7.2;25.5;55.34;6971;2018-04-16 22:56:28:369
-3.136;-11.024;-3.439;-1.958;-9.474;1.605;-1.178;-1.55;-5.044;-1.906;-0.077;-0.39;0.9;7.5;25.4;55.34;6982;2018-04-16 22:56:28:380
-3.136;-11.024;-3.439;-1.958;-9.474;1.605;-1.178;-1.55;-5.044;-1.906;-0.077;-0.39;0.9;7.5;25.4;55.34;6992;2018-04-16 22:56:28:390
-3.733;-10.151;-2.346;-1.887;-9.554;1.151;-2.024;-0.513;-3.13;-2.56;0.064;-0.375;0.9;7.5;25.4;55.34;7001;2018-04-16 22:56:28:399
-4.147;-9.94;-0.752;-1.887;-9.554;1.151;-2.024;-0.513;-3.13;-2.943;0.098;-0.309;0.9;7.8;25.4;55.34;7011;2018-04-16 22:56:28:409
-3.85;-9.905;2.143;-1.83;-9.617;0.584;-2.279;-0.323;0.395;-3.02;0.12;-0.253;0.7;7.9;25.3;55.34;7021;2018-04-16 22:56:28:419
-3.85;-9.905;2.143;-1.83;-9.617;0.584;-2.279;-0.323;0.395;-3.02;0.12;-0.253;0.7;7.9;25.3;53.76;7031;2018-04-16 22:56:28:429
-3.491;-10.113;3.627;-1.784;-9.643;0.013;-1.707;-0.47;3.614;-2.954;0.149;-0.241;0.7;7.9;25.3;53.76;7041;2018-04-16 22:56:28:439
-3.491;-10.113;3.627;-1.784;-9.643;0.013;-1.707;-0.47;3.614;-2.831;0.195;-0.265;0.6;7.9;25.3;53.76;7051;2018-04-16 22:56:28:449
-3.843;-10.679;4.536;-1.733;-9.639;-0.512;-1.967;-1.053;5.369;-2.677;0.297;-0.264;0.6;7.9;25.3;53.76;7061;2018-04-16 22:56:28:459
-3.127;-10.783;5.974;-1.733;-9.639;-0.512;-1.967;-1.053;5.369;-2.324;0.522;-0.254;0.4;7.8;25.4;53.76;7071;2018-04-16 22:56:28:469
-3.127;-10.783;5.974;-1.67;-9.617;-0.947;-3.46;-2.05;8.037;-1.98;0.891;-0.29;0.4;7.8;25.4;53.76;7081;2018-04-16 22:56:28:479
-6.179;-12.269;6.882;-1.67;-9.617;-0.947;-3.46;-2.05;8.037;-1.746;1.855;-0.127;0.1;7.7;25.6;53.76;7091;2018-04-16 22:56:28:489
-5.405;-11.297;2.728;-1.605;-9.58;-1.35;-4.111;-2.214;5.202;-1.659;3.128;0.017;-0.1;7.4;25.7;53.76;7102;2018-04-16 22:56:28:500
-5.405;-11.297;2.728;-1.605;-9.58;-1.35;-4.111;-2.214;5.202;-1.659;3.128;0.017;-0.1;7.4;25.7;53.76;7113;2018-04-16 22:56:28:511
-5.264;-9.75;0.991;-1.486;-9.527;-1.788;-3.777;-0.223;2.779;-1.792;3.506;-0.101;-0.1;7.4;25.7;53.76;7121;2018-04-16 22:56:28:519
-5.264;-9.75;0.991;-1.486;-9.527;-1.788;-3.777;-0.223;2.779;-1.792;3.506;-0.101;-1.3;5.7;26.0;53.76;7131;2018-04-16 22:56:28:529
-3.777;-10.048;-8.983;-1.382;-9.458;-2.194;-1.957;-0.621;-6.498;-1.731;2.993;-0.029;-1.3;5.7;26.0;53.76;7141;2018-04-16 22:56:28:539
-2.662;-9.125;-5.109;-1.382;-9.458;-2.194;-1.957;-0.621;-6.498;-1.565;0.833;0.17;-3.3;3.7;26.8;53.76;7151;2018-04-16 22:56:28:549
-2.662;-9.125;-5.109;-1.469;-9.391;-2.411;-0.808;1.484;1.353;-1.293;-0.836;0.296;-3.3;3.7;26.8;53.76;7161;2018-04-16 22:56:28:559
-1.426;-7.25;2.648;-1.469;-9.391;-2.411;-0.808;1.484;1.353;-0.87;-1.357;0.193;-4.1;3.2;26.9;53.76;7170;2018-04-16 22:56:28:568
-1.499;-7.804;3.997;-1.526;-9.357;-2.506;0.027;1.553;6.503;-0.536;-0.547;-0.044;-4.3;2.1;26.8;53.76;7181;2018-04-16 22:56:28:579
-1.499;-7.804;3.997;-1.526;-9.357;-2.506;0.027;1.553;6.503;-0.536;-0.547;-0.044;-4.3;2.1;26.8;53.76;7191;2018-04-16 22:56:28:589
-0.76;-8.156;1.256;-1.398;-9.359;-2.574;0.677;1.177;3.205;-0.134;1.423;-0.297;-5.3;0.9;25.9;53.76;7201;2018-04-16 22:56:28:599
-0.76;-8.156;1.256;-1.398;-9.359;-2.574;0.677;1.177;3.205;-0.031;2.456;-0.451;-5.3;0.9;25.9;53.76;7211;2018-04-16 22:56:28:609
-1.453;-8.381;-1.062;-1.186;-9.369;-2.643;-0.414;1.052;1.296;-0.011;2.572;-0.421;-5.8;0.8;26.4;53.76;7223;2018-04-16 22:56:28:621
-2.236;-7.786;-1.695;-1.186;-9.369;-2.643;-0.414;1.052;1.296;-0.011;2.572;-0.421;-5.8;0.8;26.4;53.76;7232;2018-04-16 22:56:28:630
-1.946;-7.325;-1.751;-1.026;-9.371;-2.7;-0.921;2.046;0.949;-0.082;1.996;-0.175;-6.9;0.4;26.6;53.76;7241;2018-04-16 22:56:28:639
-1.946;-7.325;-1.751;-1.026;-9.371;-2.7;-0.921;2.046;0.949;-0.232;1.498;-0.153;-7.3;0.4;26.0;53.76;7251;2018-04-16 22:56:28:649
-1.946;-7.325;-1.751;-1.026;-9.371;-2.7;-0.921;2.046;0.949;-0.418;0.189;-0.151;-7.3;0.4;26.0;53.76;7261;2018-04-16 22:56:28:659
-2.607;-6.914;0.221;-0.963;-9.355;-2.78;-1.644;2.44;3.002;-0.418;0.189;-0.151;-7.3;0.4;26.0;53.76;7271;2018-04-16 22:56:28:669
-2.698;-6.868;0.782;-0.97;-9.345;-2.809;-1.728;2.478;3.591;-0.414;-0.242;-0.132;-8.0;0.5;26.2;53.76;7281;2018-04-16 22:56:28:679
-3.656;-5.504;0.874;-1.005;-9.323;-2.871;-2.651;3.819;3.745;-0.413;-0.494;-0.009;-8.0;0.5;26.2;53.76;7291;2018-04-16 22:56:28:689
-3.656;-5.504;0.874;-1.005;-9.323;-2.871;-2.651;3.819;3.745;-0.467;0.018;0.048;-7.7;-0.4;26.2;53.76;7302;2018-04-16 22:56:28:700
-4.356;-5.207;0.086;-1.01;-9.294;-2.962;-3.367;4.075;2.829;-0.478;0.384;0.127;-7.8;-0.2;26.5;53.76;7311;2018-04-16 22:56:28:709
-4.338;-5.345;-0.669;-1.01;-9.294;-2.962;-3.367;4.075;2.829;-0.365;0.479;0.227;-7.8;-0.2;26.5;53.76;7321;2018-04-16 22:56:28:719
-4.338;-5.345;-0.669;-1.039;-9.273;-3.016;-2.803;3.75;1.905;-0.109;0.296;0.337;-7.8;-0.2;26.5;53.76;7332;2018-04-16 22:56:28:730
-3.306;-5.598;-1.265;-1.086;-9.276;-2.992;-1.829;3.683;1.657;0.22;-0.075;0.423;-8.4;-0.7;25.7;56.58;7341;2018-04-16 22:56:28:739
-1.961;-5.76;-1.557;-1.086;-9.276;-2.992;-1.829;3.683;1.657;0.22;-0.075;0.423;-8.4;-0.7;25.7;56.58;7351;2018-04-16 22:56:28:749
-0.854;-6.656;-2.259;-1.208;-9.3;-2.867;0.026;3.096;0.984;0.611;-0.577;0.479;-8.1;-0.6;26.6;56.58;7361;2018-04-16 22:56:28:759
-0.854;-6.656;-2.259;-1.208;-9.3;-2.867;0.026;3.096;0.984;0.764;-0.946;0.53;-8.1;-0.6;26.6;56.58;7371;2018-04-16 22:56:28:769
-0.03;-8.118;-3.462;-1.373;-9.327;-2.702;1.343;1.209;-0.76;0.724;-1.186;0.604;-8.0;-0.5;26.2;56.58;7381;2018-04-16 22:56:28:779
0.645;-9.948;-4.761;-1.373;-9.327;-2.702;1.343;1.209;-0.76;0.525;-1.466;0.695;-8.4;-0.7;26.3;56.58;7391;2018-04-16 22:56:28:789
0.645;-9.948;-4.761;-1.575;-9.333;-2.567;2.568;-1.207;-2.867;0.525;-1.466;0.695;-8.4;-0.7;26.3;56.58;7401;2018-04-16 22:56:28:799
1.523;-11.703;-7.098;-1.575;-9.333;-2.567;2.568;-1.207;-2.867;0.347;-1.577;0.721;-8.4;-0.7;26.3;56.58;7412;2018-04-16 22:56:28:810
2.24;-12.635;-8.792;-1.782;-9.316;-2.492;4.022;-3.32;-6.3;0.123;-1.704;0.668;-8.8;-0.9;26.3;56.58;7421;2018-04-16 22:56:28:819
2.24;-12.635;-8.792;-1.782;-9.316;-2.492;4.022;-3.32;-6.3;-0.301;-1.709;0.421;-8.8;-0.9;26.3;56.58;7432;2018-04-16 22:56:28:830
3.291;-12.842;-7.992;-1.782;-9.316;-2.492;4.022;-3.32;-6.3;-0.479;-1.351;0.089;-8.9;-0.9;26.3;56.58;7442;2018-04-16 22:56:28:840
3.263;-12.762;-7.148;-1.902;-9.287;-2.511;5.166;-3.475;-4.637;-0.479;-1.351;0.089;-8.9;-0.9;26.2;56.58;7452;2018-04-16 22:56:28:850
1.739;-11.339;-4.086;-1.857;-9.287;-2.546;3.596;-2.052;-1.54;-0.167;-0.227;-0.481;-8.9;-0.9;26.2;56.58;7461;2018-04-16 22:56:28:859
1.739;-11.339;-4.086;-1.857;-9.287;-2.546;3.596;-2.052;-1.54;-0.167;-0.227;-0.481;-8.9;-0.8;26.2;56.58;7471;2018-04-16 22:56:28:869
0.646;-10.031;-4.27;-1.716;-9.323;-2.512;2.13;-0.604;-2.091;0.252;0.373;-0.65;-8.9;-0.8;26.2;56.58;7481;2018-04-16 22:56:28:879
0.086;-9.82;-5.168;-1.716;-9.323;-2.512;2.13;-0.604;-2.091;0.551;0.705;-0.753;-9.0;-0.8;26.1;56.58;7491;2018-04-16 22:56:28:889
-0.821;-9.872;-7.494;-1.538;-9.379;-2.417;1.037;-0.41;-4.529;0.691;0.677;-0.782;-9.0;-0.6;26.1;56.58;7501;2018-04-16 22:56:28:899
-2.322;-10.829;-6.789;-1.538;-9.379;-2.417;1.037;-0.41;-4.529;0.546;-0.314;-0.673;-9.0;-0.6;26.1;56.58;7511;2018-04-16 22:56:28:909
-2.322;-10.829;-6.789;-1.538;-9.379;-2.417;1.037;-0.41;-4.529;0.546;-0.314;-0.673;-9.0;-0.6;26.1;56.58;7521;2018-04-16 22:56:28:919
-3.056;-11.271;-3.254;-1.408;-9.428;-2.303;-1.33;-1.692;-2.685;0.546;-0.314;-0.673;-9.1;-0.5;26.1;56.58;7532;2018-04-16 22:56:28:930
-3.688;-11.517;-1.107;-1.354;-9.455;-2.224;-2.334;-2.063;1.116;0.331;-0.757;-0.478;-9.1;-0.5;26.1;56.58;7542;2018-04-16 22:56:28:940
-3.688;-11.517;-1.107;-1.354;-9.455;-2.224;-2.334;-2.063;1.116;0.106;-0.772;-0.325;-9.0;-0.3;26.2;56.58;7552;2018-04-16 22:56:28:950
-3.054;-12.031;0.059;-1.354;-9.452;-2.236;-1.589;-2.678;2.586;-0.265;-0.613;-0.101;-9.0;-0.3;26.2;56.58;7561;2018-04-16 22:56:28:959
-3.296;-11.734;0.649;-1.354;-9.452;-2.236;-1.589;-2.678;2.586;-0.401;-0.33;-0.02;-8.8;-0.1;26.3;56.58;7572;2018-04-16 22:56:28:970
-3.296;-11.734;0.649;-1.352;-9.432;-2.318;-1.687;-1.324;2.069;-0.507;-0.018;-0.066;-8.8;-0.1;26.3;56.58;7581;2018-04-16 22:56:28:979
-2.868;-10.074;-0.675;-1.352;-9.432;-2.318;-1.687;-1.324;2.069;-0.507;-0.018;-0.066;-8.6;0.0;26.4;56.58;7591;2018-04-16 22:56:28:989
-3.158;-7.699;-0.218;-1.272;-9.42;-2.411;-1.886;1.721;2.194;-0.496;0.496;-0.33;-8.6;0.0;26.4;56.58;7602;2018-04-16 22:56:29:000
-3.158;-7.699;-0.218;-1.272;-9.42;-2.411;-1.886;1.721;2.194;-0.172;0.812;-0.522;-8.5;0.2;26.5;56.58;7611;2018-04-16 22:56:29:009
-4.7;-5.862;0.243;-1.138;-9.432;-2.432;-3.839;3.674;2.302;0.125;0.833;-0.489;-8.5;0.2;26.5;56.58;7621;2018-04-16 22:56:29:019
-5.382;-5.764;-0.839;-1.138;-9.432;-2.432;-3.839;3.674;2.302;0.125;0.833;-0.489;-8.4;0.3;26.7;56.58;7631;2018-04-16 22:56:29:029
-6.147;-7.086;-0.237;-1.092;-9.467;-2.314;-5.055;2.381;2.077;0.617;0.446;-0.264;-8.4;0.3;26.7;56.58;7641;2018-04-16 22:56:29:039
-6.147;-7.086;-0.237;-1.092;-9.467;-2.314;-5.055;2.381;2.077;0.922;0.104;0.01;-8.2;0.6;26.7;56.58;7651;2018-04-16 22:56:29:049
-5.689;-8.279;0.769;-1.177;-9.507;-2.098;-4.393;0.992;2.855;1.038;0.109;0.396;-8.2;0.6;26.7;56.58;7661;2018-04-16 22:56:29:059
-5.546;-8.814;0.686;-1.177;-9.507;-2.098;-4.393;0.992;2.855;1.038;0.109;0.396;-8.1;0.8;26.8;53.79;7673;2018-04-16 22:56:29:071
-5.546;-8.814;0.686;-1.275;-9.524;-1.958;-4.386;-0.509;2.655;0.674;0.502;0.634;-8.1;0.8;26.8;53.79;7681;2018-04-16 22:56:29:079
-5.409;-10.284;0.573;-1.275;-9.524;-1.958;-4.386;-0.509;2.655;0.674;0.502;0.634;-8.0;1.1;26.7;53.79;7691;2018-04-16 22:56:29:089
-4.554;-10.154;0.102;-1.393;-9.514;-1.927;-3.16;-0.64;2.029;0.28;0.777;0.786;-8.0;1.1;26.7;53.79;7701;2018-04-16 22:56:29:099
-4.554;-10.154;0.102;-1.393;-9.514;-1.927;-3.16;-0.64;2.029;0.018;0.801;0.793;-8.1;1.3;26.8;53.79;7711;2018-04-16 22:56:29:109
-3.918;-9.817;-0.237;-1.516;-9.483;-1.985;-2.272;-0.296;1.68;-0.211;0.71;0.77;-8.1;1.3;26.8;53.79;7721;2018-04-16 22:56:29:119
-3.394;-9.613;-0.891;-1.516;-9.483;-1.985;-2.272;-0.296;1.68;-0.429;0.359;0.768;-8.2;1.5;26.7;53.79;7731;2018-04-16 22:56:29:129
-2.656;-9.383;-1.444;-1.674;-9.442;-2.055;-0.982;0.059;0.611;-0.363;-0.176;0.812;-8.3;1.6;26.6;53.79;7741;2018-04-16 22:56:29:139
-2.656;-9.383;-1.444;-1.674;-9.442;-2.055;-0.982;0.059;0.611;-0.05;-1.08;0.833;-8.3;1.6;26.6;53.79;7751;2018-04-16 22:56:29:149
-1.441;-9.152;-1.18;-1.879;-9.421;-1.972;0.491;0.18;0.997;0.258;-1.985;0.733;-8.5;1.8;26.6;53.79;7761;2018-04-16 22:56:29:159
-1.888;-9.971;-0.138;-1.879;-9.421;-1.972;0.491;0.18;0.997;0.258;-1.985;0.733;-8.5;1.8;26.6;53.79;7772;2018-04-16 22:56:29:170
-1.888;-9.971;-0.138;-2.075;-9.415;-1.794;0.462;-1.05;2.102;0.351;-2.734;0.519;-8.6;2.0;26.6;53.79;7782;2018-04-16 22:56:29:180
-1.107;-10.467;0.475;-2.075;-9.415;-1.794;0.462;-1.05;2.102;0.378;-2.8;0.644;-8.6;2.1;26.7;53.79;7791;2018-04-16 22:56:29:189
-1.107;-10.467;0.475;-2.075;-9.415;-1.794;0.462;-1.05;2.102;0.378;-2.8;0.644;-8.6;2.1;26.7;53.79;7801;2018-04-16 22:56:29:199
-0.061;-10.483;1.362;-2.292;-9.402;-1.585;2.231;-1.081;2.947;0.478;-2.806;0.701;-8.6;2.3;26.8;53.79;7814;2018-04-16 22:56:29:212
0.816;-10.112;1.736;-2.442;-9.411;-1.277;3.259;-0.701;3.013;1.103;-2.302;0.384;-8.6;2.3;26.8;53.79;7821;2018-04-16 22:56:29:219
0.816;-10.112;1.736;-2.442;-9.411;-1.277;3.259;-0.701;3.013;1.267;-1.877;0.153;-8.4;2.6;26.9;53.79;7831;2018-04-16 22:56:29:229
0.019;-9.791;1.322;-2.469;-9.444;-0.938;2.378;-0.267;2.171;1.318;-1.417;0.005;-8.2;2.9;26.9;53.79;7841;2018-04-16 22:56:29:239
-0.395;-9.23;0.913;-2.469;-9.444;-0.938;2.378;-0.267;2.171;1.318;-1.417;0.005;-8.2;2.9;26.9;53.79;7851;2018-04-16 22:56:29:249
-0.43;-8.692;0.6;-2.462;-9.469;-0.664;2.032;0.777;1.264;1.244;-0.771;-0.065;-8.2;2.9;26.9;53.79;7861;2018-04-16 22:56:29:259
-0.43;-8.692;0.6;-2.462;-9.469;-0.664;2.032;0.777;1.264;1.141;-0.395;-0.083;-7.9;3.2;27.0;53.79;7870;2018-04-16 22:56:29:268
-0.76;-8.321;0.201;-2.462;-9.469;-0.664;2.032;0.777;1.264;1.043;-0.139;-0.108;-7.9;3.2;27.0;53.79;7881;2018-04-16 22:56:29:279
-1.344;-8.537;-0.092;-2.444;-9.486;-0.459;1.683;1.165;0.66;0.982;-0.021;-0.103;-7.5;3.6;26.8;53.79;7891;2018-04-16 22:56:29:289
-1.344;-8.537;-0.092;-2.428;-9.497;-0.277;0.979;1.018;0.182;0.933;-0.053;-0.079;-7.5;3.6;26.8;53.79;7901;2018-04-16 22:56:29:299
-1.693;-8.656;-0.025;-2.428;-9.497;-0.277;0.979;1.018;0.182;0.933;-0.053;-0.079;-6.7;4.5;26.8;53.79;7910;2018-04-16 22:56:29:308
-2.21;-9.123;0.043;-2.405;-9.507;-0.09;0.195;0.384;0.133;0.94;-0.1;-0.108;-6.7;4.5;26.8;53.79;7921;2018-04-16 22:56:29:319
-2.21;-9.123;0.043;-2.405;-9.507;-0.09;0.195;0.384;0.133;0.999;-0.084;-0.125;-6.1;5.2;27.2;53.79;7931;2018-04-16 22:56:29:329
-2.424;-9.232;-0.117;-2.383;-9.512;0.112;-0.112;0.209;-0.195;1.057;-0.077;-0.117;-6.1;5.2;27.2;53.79;7942;2018-04-16 22:56:29:340
-2.641;-9.335;0.09;-2.383;-9.512;0.112;-0.112;0.209;-0.195;1.057;-0.077;-0.117;-5.5;6.4;26.4;53.79;7951;2018-04-16 22:56:29:349
-2.641;-9.335;0.09;-2.383;-9.512;0.112;-0.112;0.209;-0.195;1.043;0.043;-0.07;-5.5;6.5;27.0;53.79;7961;2018-04-16 22:56:29:359
-2.619;-8.985;0.283;-2.373;-9.51;0.306;-0.246;0.525;-0.023;1.024;0.117;-0.05;-5.5;6.5;27.0;53.79;7972;2018-04-16 22:56:29:370
-2.619;-8.985;0.283;-2.373;-9.51;0.306;-0.246;0.525;-0.023;1.024;0.117;-0.05;-5.2;6.6;26.6;53.79;7982;2018-04-16 22:56:29:380
-2.33;-8.371;0.336;-2.375;-9.503;0.471;0.046;1.132;-0.135;0.957;0.463;0.001;-5.0;7.3;26.9;56.73;7992;2018-04-16 22:56:29:390
-2.44;-8.598;0.196;-2.387;-9.491;0.63;-0.053;0.893;-0.434;1.003;0.566;0.038;-5.0;7.3;26.9;56.73;8001;2018-04-16 22:56:29:399
-2.44;-8.598;0.196;-2.387;-9.491;0.63;-0.053;0.893;-0.434;1.087;0.491;0.06;-5.2;7.3;26.8;56.73;8011;2018-04-16 22:56:29:409
-2.734;-9.154;0.054;-2.409;-9.47;0.826;-0.425;0.051;-0.783;1.228;0.357;0.072;-5.2;7.3;26.8;56.73;8021;2018-04-16 22:56:29:419
-3.041;-9.986;-0.035;-2.409;-9.47;0.826;-0.425;0.051;-0.783;1.393;0.204;0.09;-4.8;8.6;26.7;56.73;8031;2018-04-16 22:56:29:429
-3.103;-10.411;-0.15;-2.434;-9.437;1.091;-0.669;-0.974;-1.241;1.494;0.095;0.127;-4.8;8.5;26.4;56.73;8041;2018-04-16 22:56:29:439
-3.103;-10.411;-0.15;-2.434;-9.437;1.091;-0.669;-0.974;-1.241;1.494;0.095;0.127;-4.8;8.5;26.4;56.73;8051;2018-04-16 22:56:29:449
-2.54;-9.974;-0.449;-2.481;-9.391;1.348;0.055;-0.412;-1.834;1.39;0.101;0.259;-4.6;8.5;26.4;56.73;8061;2018-04-16 22:56:29:459
-2.296;-9.649;-0.534;-2.481;-9.391;1.348;0.055;-0.412;-1.834;1.321;0.094;0.275;-4.5;8.6;26.5;56.73;8071;2018-04-16 22:56:29:469
-1.853;-9.222;-0.846;-2.505;-9.37;1.449;0.321;-0.121;-2.026;1.316;0.051;0.275;-4.5;8.6;26.5;56.73;8081;2018-04-16 22:56:29:479
-1.853;-9.222;-0.846;-2.549;-9.321;1.672;1.034;0.162;-2.911;1.316;0.051;0.275;-4.2;8.7;26.5;56.73;8093;2018-04-16 22:56:29:491
-1.397;-9.231;-1.445;-2.549;-9.321;1.672;1.034;0.162;-2.911;1.262;-0.044;0.181;-4.1;9.5;26.3;56.73;8101;2018-04-16 22:56:29:499
-1.198;-9.509;-1.908;-2.564;-9.284;1.846;1.366;-0.225;-3.755;1.018;0.023;0.083;-4.1;9.5;26.3;56.73;8111;2018-04-16 22:56:29:509
-1.198;-9.509;-1.908;-2.564;-9.284;1.846;1.366;-0.225;-3.755;0.707;0.191;0.049;-4.1;9.5;26.3;56.73;8121;2018-04-16 22:56:29:519
-0.797;-9.947;-2.071;-2.576;-9.268;1.909;1.937;-0.762;-3.894;0.707;0.191;0.049;-4.0;10.4;25.9;56.73;8130;2018-04-16 22:56:29:528
-0.373;-10.205;-1.755;-2.584;-9.267;1.9;2.325;-1.027;-3.433;0.206;0.408;0.038;-4.1;10.8;25.7;56.73;8141;2018-04-16 22:56:29:539
-0.37;-10.548;-0.759;-2.584;-9.267;1.9;2.325;-1.027;-3.433;0.01;0.353;-0.053;-4.1;10.8;25.7;56.73;8151;2018-04-16 22:56:29:549
-0.37;-10.548;-0.759;-2.576;-9.272;1.888;1.577;-1.718;-2.066;0.046;0.249;-0.123;-4.2;11.6;25.4;56.73;8161;2018-04-16 22:56:29:559
-1.209;-11.193;0.022;-2.576;-9.272;1.888;1.577;-1.718;-2.066;0.046;0.249;-0.123;-4.2;11.6;25.4;56.73;8171;2018-04-16 22:56:29:569
-1.128;-11.677;0.201;-2.561;-9.276;1.889;1.433;-2.401;-1.687;0.071;0.243;-0.127;-4.3;12.0;25.2;56.73;8181;2018-04-16 22:56:29:579
-1.128;-11.677;0.201;-2.561;-9.276;1.889;1.433;-2.401;-1.687;0.087;0.213;-0.142;-4.3;12.0;25.2;56.73;8191;2018-04-16 22:56:29:589
-0.905;-11.473;0.043;-2.539;-9.279;1.902;1.71;-2.123;-2.01;0.153;0.134;-0.164;-4.4;12.3;25.0;56.73;8202;2018-04-16 22:56:29:600
-0.658;-11.375;-0.384;-2.539;-9.279;1.902;1.71;-2.123;-2.01;0.186;0.084;-0.181;-4.6;12.7;24.9;56.73;8211;2018-04-16 22:56:29:609
-0.238;-11.724;-1.171;-2.494;-9.284;1.937;2.239;-2.259;-2.959;0.105;-0.073;-0.287;-4.7;12.9;24.7;56.73;8222;2018-04-16 22:56:29:620
-0.238;-11.724;-1.171;-2.494;-9.284;1.937;2.239;-2.259;-2.959;-0.092;-0.059;-0.341;-4.7;12.9;24.7;56.73;8232;2018-04-16 22:56:29:630
-0.28;-12.486;-1.507;-2.429;-9.305;1.918;2.149;-3.18;-3.425;-0.092;-0.059;-0.341;-4.7;12.9;24.7;56.73;8241;2018-04-16 22:56:29:639
-0.28;-12.486;-1.507;-2.429;-9.305;1.918;2.149;-3.18;-3.425;-0.354;0.005;-0.392;-4.8;13.4;24.4;56.73;8252;2018-04-16 22:56:29:650
-0.492;-13.257;-1.913;-2.429;-9.305;1.918;2.149;-3.18;-3.425;-0.354;0.005;-0.392;-4.8;13.4;24.4;56.73;8261;2018-04-16 22:56:29:659
-0.529;-13.32;-1.972;-2.339;-9.354;1.788;1.847;-3.903;-3.701;-0.839;0.011;-0.523;-5.0;13.8;24.2;56.73;8271;2018-04-16 22:56:29:669
-1.906;-12.694;-1.578;-2.212;-9.428;1.544;0.307;-3.266;-3.121;-1.352;-0.28;-0.634;-5.0;13.8;24.2;56.73;8281;2018-04-16 22:56:29:679
-1.906;-12.694;-1.578;-2.212;-9.428;1.544;0.307;-3.266;-3.121;-1.652;-0.534;-0.595;-5.2;14.3;24.0;56.73;8291;2018-04-16 22:56:29:689
-3.411;-11.025;-1.514;-2.094;-9.503;1.211;-1.803;-1.202;-3.013;-1.899;-0.693;-0.523;-5.2;14.3;24.0;56.73;8302;2018-04-16 22:56:29:700
-4.891;-10.573;-2.107;-2.094;-9.503;1.211;-1.803;-1.202;-3.013;-2.149;-0.733;-0.489;-5.4;14.6;23.9;56.73;8311;2018-04-16 22:56:29:709
-4.891;-10.573;-2.107;-1.999;-9.57;0.766;-3.29;-1.043;-2.041;-2.63;-0.659;-0.393;-5.4;14.6;23.9;56.73;8321;2018-04-16 22:56:29:719
-5.302;-10.739;-0.332;-1.999;-9.57;0.766;-3.29;-1.043;-2.041;-2.928;-0.583;-0.292;-5.6;14.7;24.0;52.9;8331;2018-04-16 22:56:29:729
-4.956;-11.163;2.043;-1.945;-9.61;0.2;-3.011;-1.553;1.843;-3.103;-0.484;-0.221;-5.8;14.7;24.1;52.9;8341;2018-04-16 22:56:29:739
-4.956;-11.163;2.043;-1.945;-9.61;0.2;-3.011;-1.553;1.843;-3.103;-0.484;-0.221;-5.8;14.7;24.1;52.9;8351;2018-04-16 22:56:29:749
-4.697;-11.823;4.494;-1.904;-9.612;-0.388;-2.752;-2.291;5.486;-3.09;0.094;-0.224;-5.8;14.7;24.1;52.9;8361;2018-04-16 22:56:29:759
-4.481;-11.635;5.816;-1.904;-9.612;-0.388;-2.752;-2.291;5.486;-2.947;0.628;-0.241;-5.9;14.6;24.3;52.9;8371;2018-04-16 22:56:29:769
-3.517;-11.009;5.903;-1.841;-9.587;-0.929;-1.676;-1.421;6.832;-2.448;1.177;-0.259;-5.9;14.6;24.3;52.9;8383;2018-04-16 22:56:29:781
-3.517;-11.009;5.903;-1.841;-9.587;-0.929;-1.676;-1.421;6.832;-2.448;1.177;-0.259;-6.1;14.4;24.5;52.9;8392;2018-04-16 22:56:29:790
-5.428;-11.891;4.921;-1.764;-9.554;-1.335;-3.608;-2.281;5.57;-1.829;1.531;-0.23;-6.1;14.4;24.5;52.9;8401;2018-04-16 22:56:29:799
-5.259;-11.479;3.243;-1.764;-9.554;-1.335;-3.608;-2.281;5.57;-1.62;1.962;-0.084;-6.8;12.1;25.8;52.9;8411;2018-04-16 22:56:29:809
-5.131;-10.704;1.826;-1.688;-9.509;-1.702;-3.442;-1.196;3.528;-1.516;2.182;-0.051;-6.8;12.1;25.8;52.9;8421;2018-04-16 22:56:29:819
-5.131;-10.704;1.826;-1.688;-9.509;-1.702;-3.442;-1.196;3.528;-1.516;2.182;-0.051;-8.1;10.3;26.5;52.9;8431;2018-04-16 22:56:29:829
-5.157;-10.126;-0.259;-1.65;-9.486;-1.862;-3.507;-0.64;1.603;-1.475;2.095;-0.055;-8.1;10.3;26.5;52.9;8441;2018-04-16 22:56:29:839
-3.602;-10.051;-5.194;-1.605;-9.424;-2.188;-1.997;-0.627;-3.006;-1.526;1.255;0.028;-8.9;8.8;28.0;52.9;8451;2018-04-16 22:56:29:849
-2.379;-9.001;-2.298;-1.605;-9.424;-2.188;-1.997;-0.627;-3.006;-1.443;-0.123;0.095;-8.9;8.8;28.0;52.9;8460;2018-04-16 22:56:29:858
-2.379;-9.001;-2.298;-1.632;-9.359;-2.432;-0.014;0.98;2.551;-1.443;-0.123;0.095;-10.1;7.0;28.5;52.9;8471;2018-04-16 22:56:29:869
-1.648;-8.235;1.22;-1.632;-9.359;-2.432;-0.014;0.98;2.551;-1.106;-0.173;-0.038;-10.1;7.0;28.5;52.9;8480;2018-04-16 22:56:29:878
-1.426;-7.999;1.731;-1.568;-9.32;-2.617;0.142;1.321;4.348;-0.875;0.657;-0.178;-10.2;6.4;27.7;52.9;8491;2018-04-16 22:56:29:889
-1.605;-7.989;0.608;-1.468;-9.309;-2.713;-0.137;1.319;3.322;-0.66;1.726;-0.286;-10.4;5.1;28.7;52.9;8501;2018-04-16 22:56:29:899
-1.605;-7.989;0.608;-1.468;-9.309;-2.713;-0.137;1.319;3.322;-0.478;2.69;-0.415;-10.4;5.1;28.7;52.9;8511;2018-04-16 22:56:29:909
-1.9;-7.815;0.066;-1.236;-9.299;-2.858;-0.91;1.575;2.717;-0.478;2.69;-0.415;-11.6;4.4;29.4;52.9;8521;2018-04-16 22:56:29:919
-2.72;-7.374;-0.613;-1.236;-9.299;-2.858;-0.91;1.575;2.717;-0.216;2.687;-0.439;-12.3;4.8;27.4;52.9;8531;2018-04-16 22:56:29:929
-2.72;-7.374;-0.613;-1.038;-9.301;-2.929;-1.124;2.431;2.971;-0.079;1.995;-0.32;-12.3;4.8;27.4;52.9;8541;2018-04-16 22:56:29:939
-2.023;-6.868;0.178;-1.038;-9.301;-2.929;-1.124;2.431;2.971;-0.079;1.995;-0.32;-12.3;4.8;27.4;52.9;8551;2018-04-16 22:56:29:949
-2.464;-6.971;-1.459;-0.909;-9.312;-2.939;-1.555;2.341;1.48;0.051;1.12;-0.373;-13.3;3.9;28.4;52.9;8561;2018-04-16 22:56:29:959
-2.464;-6.971;-1.459;-0.909;-9.312;-2.939;-1.555;2.341;1.48;0.02;-0.136;-0.446;-14.1;3.6;27.9;52.9;8572;2018-04-16 22:56:29:970
-2.488;-6.444;1.926;-0.899;-9.312;-2.94;-2.079;1.985;2.336;-0.358;-1.88;-0.187;-14.1;3.6;27.9;52.9;8582;2018-04-16 22:56:29:980
-2.488;-6.444;1.926;-0.981;-9.288;-2.989;-1.394;3.12;5.259;-0.358;-1.88;-0.187;-14.2;3.7;26.9;52.9;8591;2018-04-16 22:56:29:989
-2.597;-5.802;2.298;-0.981;-9.288;-2.989;-1.394;3.12;5.259;-0.652;-1.289;-0.05;-14.2;3.7;26.9;52.9;8601;2018-04-16 22:56:29:999
-3.08;-5.616;1.765;-0.998;-9.241;-3.128;-2.083;3.625;4.892;-0.852;0.155;-0.021;-13.5;3.0;28.1;52.9;8612;2018-04-16 22:56:30:010
-3.654;-5.467;0.16;-0.998;-9.241;-3.128;-2.083;3.625;4.892;-0.814;0.67;0.007;-13.5;3.3;28.0;52.9;8622;2018-04-16 22:56:30:020
-3.654;-5.467;0.16;-0.963;-9.195;-3.271;-2.887;3.918;2.744;-0.591;0.607;0.055;-13.5;3.3;28.0;52.9;8631;2018-04-16 22:56:30:029
-3.748;-5.148;-0.624;-0.963;-9.195;-3.271;-2.887;3.918;2.744;-0.591;0.607;0.055;-14.0;2.2;28.2;52.9;8641;2018-04-16 22:56:30:039
-3.748;-5.148;-0.624;-0.989;-9.198;-3.252;-1.67;4.475;2.479;0.248;-0.21;0.138;-14.0;2.2;28.2;56.54;8651;2018-04-16 22:56:30:049
-2.172;-4.689;-0.897;-0.989;-9.198;-3.252;-1.67;4.475;2.479;0.765;-0.705;0.144;-14.1;2.0;28.8;56.54;8661;2018-04-16 22:56:30:059
-0.978;-5.012;-1.31;-1.069;-9.25;-3.077;0.091;4.238;1.767;0.765;-0.705;0.144;-14.1;2.0;28.8;56.54;8671;2018-04-16 22:56:30:069
-0.614;-5.686;-2.09;-1.129;-9.282;-2.956;0.091;4.238;1.767;1.041;-1.001;0.198;-13.6;2.6;28.7;56.54;8681;2018-04-16 22:56:30:079
-0.614;-5.686;-2.09;-1.129;-9.282;-2.956;0.792;2.638;-0.226;1.074;-1.101;0.309;-13.6;2.6;28.7;56.54;8691;2018-04-16 22:56:30:089
-0.396;-7.452;-3.837;-1.289;-9.325;-2.749;0.901;1.36;-1.625;0.986;-1.23;0.468;-13.4;2.8;28.3;56.54;8701;2018-04-16 22:56:30:099
-0.333;-9.653;-6.002;-1.289;-9.325;-2.749;0.901;1.36;-1.625;0.66;-1.549;0.753;-13.4;2.8;28.3;56.54;8711;2018-04-16 22:56:30:109
-0.333;-9.653;-6.002;-1.534;-9.325;-2.62;1.494;-1.87;-5.237;0.66;-1.549;0.753;-13.8;2.6;28.5;56.54;8721;2018-04-16 22:56:30:119
0.372;-11.766;-8.944;-1.534;-9.325;-2.62;1.494;-1.87;-5.237;0.054;-1.899;0.959;-14.0;2.4;28.6;56.54;8731;2018-04-16 22:56:30:129
1.747;-13.13;-9.831;-1.814;-9.273;-2.624;3.561;-3.857;-7.207;-0.6;-2.277;0.775;-14.0;2.4;28.6;56.54;8741;2018-04-16 22:56:30:139
1.747;-13.13;-9.831;-1.814;-9.273;-2.624;3.561;-3.857;-7.207;-0.6;-2.277;0.775;-14.1;2.3;28.6;56.54;8751;2018-04-16 22:56:30:149
2.478;-13.673;-6.037;-1.923;-9.222;-2.724;4.606;-4.297;-2.311;-0.929;-1.8;0.139;-14.1;2.3;28.6;56.54;8761;2018-04-16 22:56:30:159
3.523;-12.86;-3.857;-1.923;-9.222;-2.724;4.606;-4.297;-2.311;-0.569;-0.142;-0.4;-14.1;2.3;28.6;56.54;8771;2018-04-16 22:56:30:169
3.37;-11.708;-5.261;-1.798;-9.229;-2.787;5.419;-2.906;-1.92;-0.015;0.809;-0.695;-14.0;2.2;28.6;56.54;8783;2018-04-16 22:56:30:181
3.37;-11.708;-5.261;-1.798;-9.229;-2.787;5.419;-2.906;-1.92;-0.015;0.809;-0.695;-14.0;2.2;28.6;56.54;8791;2018-04-16 22:56:30:189
1.872;-10.76;-6.692;-1.577;-9.308;-2.654;3.449;-1.451;-4.038;0.902;1.067;-0.908;-14.0;2.2;28.6;56.54;8802;2018-04-16 22:56:30:200
1.872;-10.76;-6.692;-1.577;-9.308;-2.654;3.449;-1.451;-4.038;1.312;0.657;-0.887;-14.0;2.2;28.6;56.54;8811;2018-04-16 22:56:30:209
1.872;-10.76;-6.692;-1.577;-9.308;-2.654;3.449;-1.451;-4.038;1.312;0.657;-0.887;-14.0;2.2;28.6;56.54;8821;2018-04-16 22:56:30:219
-0.4;-10.876;-6.516;-1.444;-9.394;-2.415;0.394;-1.577;-3.77;1.275;-0.203;-0.759;-14.0;2.2;28.5;56.54;8832;2018-04-16 22:56:30:230
-0.4;-10.876;-6.516;-1.444;-9.394;-2.415;0.394;-1.577;-3.77;1.275;-0.203;-0.759;-14.0;2.2;28.5;56.54;8841;2018-04-16 22:56:30:239
-3.431;-11.236;-1.226;-1.419;-9.438;-2.253;-2.192;-2.131;1.287;0.241;-0.951;-0.236;-13.8;2.4;28.8;56.54;8853;2018-04-16 22:56:30:251
-3.431;-11.236;-1.226;-1.419;-9.438;-2.253;-2.192;-2.131;1.287;-0.178;-0.417;-0.189;-13.8;2.4;28.8;56.54;8860;2018-04-16 22:56:30:258
-4.162;-13.427;-1.123;-1.404;-9.431;-2.293;-2.992;-4.573;0.502;-0.349;-0.144;-0.104;-13.6;2.5;28.9;56.54;8871;2018-04-16 22:56:30:269
-4.794;-15.082;-4.484;-1.404;-9.431;-2.293;-2.992;-4.573;0.502;-0.453;0.093;0.005;-13.6;2.5;28.9;56.54;8881;2018-04-16 22:56:30:279
-4.794;-15.082;-4.484;-1.402;-9.405;-2.396;-2.935;-5.231;-3.236;-0.453;0.093;0.005;-13.3;2.6;29.0;56.54;8891;2018-04-16 22:56:30:289
-3.861;-12.857;-3.846;-1.402;-9.405;-2.396;-2.935;-5.231;-3.236;-0.66;0.411;-0.079;-13.3;2.6;29.0;56.54;8901;2018-04-16 22:56:30:299
-2.561;-6.522;2.406;-1.333;-9.384;-2.517;-1.228;2.862;4.923;-0.467;0.621;-0.429;-13.1;2.7;29.2;56.54;8911;2018-04-16 22:56:30:309
-2.561;-6.522;2.406;-1.333;-9.384;-2.517;-1.228;2.862;4.923;-0.079;0.97;-0.871;-13.1;2.7;29.2;56.54;8920;2018-04-16 22:56:30:318
-4.059;-3.314;3.109;-1.109;-9.417;-2.502;-3.088;6.289;4.555;-0.079;0.97;-0.871;-13.0;2.9;29.3;56.54;8931;2018-04-16 22:56:30:329
-4.89;-3.085;-0.52;-1.0;-9.449;-2.426;-3.891;6.364;1.907;0.69;1.057;-0.904;-13.0;2.9;29.3;56.54;8941;2018-04-16 22:56:30:339
-4.89;-3.085;-0.52;-1.0;-9.449;-2.426;-3.891;6.364;1.907;0.955;0.645;-0.672;-12.8;3.0;29.3;56.54;8951;2018-04-16 22:56:30:349
-6.401;-5.871;1.147;-0.957;-9.512;-2.187;-5.421;3.087;3.763;1.252;0.178;-0.279;-12.8;3.0;29.3;56.54;8961;2018-04-16 22:56:30:359
-6.142;-7.466;1.692;-0.957;-9.512;-2.187;-5.421;3.087;3.763;1.409;0.264;0.175;-12.7;3.2;29.4;58.89;8971;2018-04-16 22:56:30:369
-6.625;-9.304;1.478;-1.037;-9.561;-1.921;-5.587;0.257;3.399;1.378;0.613;0.441;-12.6;3.3;29.4;58.89;8981;2018-04-16 22:56:30:379
-6.625;-9.304;1.478;-1.037;-9.561;-1.921;-5.587;0.257;3.399;1.191;1.036;0.597;-12.6;3.3;29.4;58.89;8991;2018-04-16 22:56:30:389
-6.114;-10.734;0.644;-1.122;-9.578;-1.784;-4.639;-1.16;2.1;0.723;1.581;0.746;-12.6;3.5;29.6;58.89;9001;2018-04-16 22:56:30:399
-5.268;-10.564;-0.223;-1.122;-9.578;-1.784;-4.639;-1.16;2.1;0.723;1.581;0.746;-12.6;3.5;29.6;58.89;9011;2018-04-16 22:56:30:409
-4.566;-10.034;-1.045;-1.21;-9.567;-1.783;-3.705;-0.741;1.041;0.217;1.73;0.759;-12.6;3.6;29.6;58.89;9021;2018-04-16 22:56:30:419
-4.566;-10.034;-1.045;-1.21;-9.567;-1.783;-3.705;-0.741;1.041;-0.183;1.414;0.909;-12.8;3.8;29.5;58.89;9031;2018-04-16 22:56:30:429
-3.703;-9.351;-1.305;-1.356;-9.531;-1.866;-2.347;0.181;0.561;-0.382;1.01;0.987;-12.8;3.8;29.5;58.89;9040;2018-04-16 22:56:30:438
-3.703;-9.351;-1.305;-1.356;-9.531;-1.866;-2.347;0.181;0.561;-0.468;0.089;1.065;-13.1;4.0;29.4;58.89;9051;2018-04-16 22:56:30:449
-2.787;-9.14;-2.073;-1.571;-9.483;-1.943;-0.734;0.499;-0.121;-0.468;0.089;1.065;-13.1;4.0;29.4;58.89;9061;2018-04-16 22:56:30:459
-1.779;-8.965;-1.523;-1.571;-9.483;-1.943;-0.734;0.499;-0.121;-0.164;-1.041;1.114;-13.1;4.0;29.4;58.89;9071;2018-04-16 22:56:30:469
-1.896;-9.17;-0.679;-1.841;-9.456;-1.834;-0.055;0.286;1.156;0.186;-2.122;1.034;-13.4;4.3;29.4;58.89;9081;2018-04-16 22:56:30:479
-1.896;-9.17;-0.679;-1.841;-9.456;-1.834;-0.055;0.286;1.156;0.309;-2.727;0.82;-13.4;4.3;29.4;58.89;9091;2018-04-16 22:56:30:489
-2.365;-9.846;0.043;-2.06;-9.44;-1.675;-0.354;-0.736;1.834;0.122;-2.9;0.556;-13.7;4.5;29.3;58.89;9101;2018-04-16 22:56:30:499
-2.373;-11.201;0.656;-2.06;-9.44;-1.675;-0.354;-0.736;1.834;0.122;-2.9;0.556;-13.7;4.5;29.3;58.89;9112;2018-04-16 22:56:30:510
-1.827;-11.456;1.18;-2.265;-9.417;-1.535;0.438;-2.039;2.716;0.015;-2.97;0.56;-13.8;4.8;29.5;58.89;9121;2018-04-16 22:56:30:519
-1.827;-11.456;1.18;-2.265;-9.417;-1.535;0.438;-2.039;2.716;0.436;-3.249;0.756;-13.8;4.8;29.5;58.89;9132;2018-04-16 22:56:30:530
-0.097;-10.645;1.499;-2.496;-9.4;-1.255;2.718;-1.007;2.967;0.786;-3.35;0.735;-13.8;5.0;29.5;58.89;9142;2018-04-16 22:56:30:540
0.464;-10.185;1.865;-2.496;-9.4;-1.255;2.718;-1.007;2.967;1.183;-3.03;0.421;-13.7;5.2;29.6;58.89;9152;2018-04-16 22:56:30:550
0.345;-9.515;1.688;-2.609;-9.413;-0.87;3.074;-0.292;2.685;1.183;-2.244;0.186;-13.5;5.5;29.6;58.89;9161;2018-04-16 22:56:30:559
0.345;-9.515;1.688;-2.609;-9.413;-0.87;3.074;-0.292;2.685;1.357;-2.244;0.186;-13.5;5.5;29.6;58.89;9171;2018-04-16 22:56:30:569
0.16;-8.464;1.221;-2.609;-9.413;-0.87;3.074;-0.292;2.685;1.354;-1.675;0.087;-12.2;6.3;30.1;58.89;9181;2018-04-16 22:56:30:579
0.092;-8.301;1.132;-2.657;-9.426;-0.509;2.749;1.125;1.642;1.354;-1.675;0.087;-11.4;6.6;29.8;58.89;9191;2018-04-16 22:56:30:589
-0.567;-8.466;0.532;-2.66;-9.436;-0.24;2.092;0.97;0.771;1.161;-0.501;-0.031;-11.4;6.6;29.8;58.89;9201;2018-04-16 22:56:30:599
-0.567;-8.466;0.532;-2.66;-9.436;-0.24;2.092;0.97;0.771;0.983;-0.006;-0.048;-9.8;8.0;30.9;58.89;9211;2018-04-16 22:56:30:609
-0.895;-8.52;0.353;-2.641;-9.444;-0.101;1.458;0.758;0.545;0.761;0.595;-0.128;-9.1;9.0;30.5;58.89;9221;2018-04-16 22:56:30:619
-1.745;-9.1;0.431;-2.641;-9.444;-0.101;1.458;0.758;0.545;0.761;0.595;-0.128;-9.1;9.0;30.5;58.89;9232;2018-04-16 22:56:30:630
-1.745;-9.1;0.431;-2.608;-9.454;0.019;0.635;0.145;0.143;0.822;0.738;-0.144;-9.1;9.0;30.5;58.89;9240;2018-04-16 22:56:30:638
-2.075;-9.427;-0.092;-2.608;-9.454;0.019;0.635;0.145;0.143;0.998;0.764;-0.194;-8.6;8.7;30.3;58.89;9251;2018-04-16 22:56:30:649
-2.31;-9.365;-0.089;-2.566;-9.463;0.172;0.345;0.04;-0.33;1.049;0.716;-0.219;-8.8;10.1;30.8;58.89;9261;2018-04-16 22:56:30:659
-2.31;-9.365;-0.089;-2.566;-9.463;0.172;0.345;0.04;-0.33;1.041;0.693;-0.198;-8.8;10.1;30.8;58.89;9271;2018-04-16 22:56:30:669
-2.303;-8.825;0.116;-2.539;-9.467;0.326;0.236;0.642;-0.21;1.041;0.693;-0.198;-8.8;10.1;30.8;58.89;9280;2018-04-16 22:56:30:678
-2.303;-8.825;0.116;-2.539;-9.467;0.326;0.236;0.642;-0.21;0.966;0.744;-0.108;-8.8;10.6;30.3;59.77;9291;2018-04-16 22:56:30:689
-2.211;-8.262;0.327;-2.529;-9.464;0.462;0.318;1.262;-0.083;0.921;0.823;-0.079;-8.6;11.6;30.6;59.77;9301;2018-04-16 22:56:30:699
-2.231;-8.322;0.463;-2.529;-9.464;0.462;0.318;1.262;-0.083;0.921;0.823;-0.079;-8.6;11.6;30.6;59.77;9311;2018-04-16 22:56:30:709
-2.231;-8.322;0.463;-2.526;-9.456;0.61;0.188;0.735;-0.134;0.99;0.82;-0.068;-8.6;11.6;30.6;59.77;9321;2018-04-16 22:56:30:719
-2.409;-9.05;0.43;-2.526;-9.456;0.61;0.188;0.735;-0.134;1.096;0.765;-0.056;-8.8;12.3;29.9;59.77;9332;2018-04-16 22:56:30:730
-2.496;-9.531;0.303;-2.531;-9.441;0.799;0.002;-0.285;-0.586;1.194;0.696;-0.028;-9.0;12.9;29.5;59.77;9341;2018-04-16 22:56:30:739
-2.51;-9.789;0.124;-2.531;-9.441;0.799;0.002;-0.285;-0.586;1.266;0.618;0.01;-9.1;12.3;29.1;59.77;9352;2018-04-16 22:56:30:750
-2.363;-9.688;-0.122;-2.551;-9.415;1.012;0.188;-0.273;-1.134;1.34;0.461;0.079;-9.2;12.9;29.5;59.77;9361;2018-04-16 22:56:30:759
-2.363;-9.688;-0.122;-2.551;-9.415;1.012;0.188;-0.273;-1.134;1.396;0.304;0.112;-9.2;12.9;29.5;59.77;9370;2018-04-16 22:56:30:768
-1.974;-9.139;-0.3;-2.576;-9.378;1.259;0.703;0.383;-1.568;1.462;0.123;0.115;-9.1;13.1;28.7;59.77;9381;2018-04-16 22:56:30:779
-1.814;-8.9;-0.318;-2.576;-9.378;1.259;0.703;0.383;-1.568;1.462;0.123;0.115;-9.1;13.1;28.7;59.77;9391;2018-04-16 22:56:30:789
