sep=;
acc_x;acc_y;acc_z;grav_x;grav_y;grav_z;lin_acc_x;lin_acc_y;lin_acc_z;gyro_x;gyro_y;gyro_z;mag_x;mag_y;mag_z;sound_lvl;time_ms;date_time
-1.68;3.235;8.657;-1.976;3.04;9.112;0.296;0.195;-0.455;-0.056;-0.187;-0.299;-6.5;-30.7;9.7;53.83;16;2018-04-16 22:31:26:186
-1.681;3.077;8.8;-1.976;3.04;9.112;0.296;0.195;-0.455;0.076;-0.406;-0.316;-6.4;-30.7;9.7;53.83;26;2018-04-16 22:31:26:196
-1.681;3.077;8.8;-1.917;3.044;9.123;0.232;-0.039;-0.378;0.076;-0.406;-0.316;-6.4;-30.7;9.7;53.83;36;2018-04-16 22:31:26:206
-1.547;2.896;8.679;-1.87;3.056;9.129;0.324;-0.161;-0.45;0.217;-0.661;-0.296;-6.3;-30.8;9.6;51.15;46;2018-04-16 22:31:26:216
-1.547;2.896;8.679;-1.87;3.056;9.129;0.324;-0.161;-0.45;0.217;-0.661;-0.296;-6.3;-30.8;9.6;51.15;55;2018-04-16 22:31:26:225
-1.041;3.262;8.56;-1.721;3.103;9.142;0.679;0.159;-0.582;0.34;-0.979;-0.305;-6.1;-30.8;9.6;51.15;65;2018-04-16 22:31:26:235
-1.041;3.262;8.56;-1.721;3.103;9.142;0.679;0.159;-0.582;0.34;-0.979;-0.305;-6.1;-30.8;9.6;51.15;76;2018-04-16 22:31:26:246
-0.885;3.381;7.527;-1.537;3.152;9.158;1.164;0.276;-1.554;0.307;-1.179;-0.443;-6.0;-30.9;9.6;51.15;86;2018-04-16 22:31:26:256
-0.885;3.381;7.527;-1.537;3.152;9.158;1.164;0.276;-1.554;0.307;-1.179;-0.443;-6.0;-30.9;9.6;51.15;96;2018-04-16 22:31:26:266
0.494;3.03;7.752;-1.444;3.16;9.17;1.939;-0.13;-1.418;0.165;-1.112;-0.533;-5.8;-30.9;9.8;51.15;106;2018-04-16 22:31:26:276
0.494;3.03;7.752;-1.444;3.16;9.17;1.939;-0.13;-1.418;0.165;-1.112;-0.533;-5.8;-30.9;9.8;51.15;116;2018-04-16 22:31:26:286
-0.066;2.192;7.859;-1.309;3.113;9.207;1.243;-0.921;-1.348;-0.16;-1.032;-0.996;-5.5;-31.0;9.8;51.15;126;2018-04-16 22:31:26:296
-2.717;1.367;7.588;-1.309;3.113;9.207;1.243;-0.921;-1.348;-0.327;-1.175;-0.764;-5.3;-31.0;10.0;51.15;136;2018-04-16 22:31:26:306
-2.717;1.367;7.588;-1.048;3.005;9.276;-1.679;-1.838;-1.438;-0.292;-1.464;-0.209;-5.3;-31.0;10.0;51.15;146;2018-04-16 22:31:26:316
-1.64;0.917;8.283;-0.89;2.98;9.3;-0.75;-2.063;-1.018;-0.292;-1.464;-0.209;-5.1;-31.1;10.0;51.15;156;2018-04-16 22:31:26:326
-0.427;1.545;8.685;-0.737;2.973;9.316;0.309;-1.428;-0.631;-0.093;-1.719;0.252;-5.1;-31.1;10.0;51.15;166;2018-04-16 22:31:26:336
-0.427;1.545;8.685;-0.737;2.973;9.316;0.309;-1.428;-0.631;-0.093;-1.719;0.252;-5.1;-31.1;10.0;51.15;176;2018-04-16 22:31:26:346
0.721;3.085;8.886;-0.391;3.003;9.327;1.448;0.558;-0.39;0.132;-1.684;0.381;-4.8;-31.1;10.0;51.15;185;2018-04-16 22:31:26:355
1.383;3.887;8.958;-0.391;3.003;9.327;1.448;0.558;-0.39;0.258;-1.597;0.302;-4.6;-31.2;10.0;51.15;195;2018-04-16 22:31:26:365
1.383;3.887;8.958;-0.22;3.04;9.321;1.935;0.987;-0.378;0.258;-1.597;0.302;-4.6;-31.2;10.0;51.15;205;2018-04-16 22:31:26:375
2.66;2.981;8.423;0.063;3.13;9.293;2.597;-0.15;-0.871;0.509;-1.367;-0.039;-4.2;-31.2;9.9;51.15;215;2018-04-16 22:31:26:385
2.66;2.981;8.423;0.063;3.13;9.293;2.597;-0.15;-0.871;0.509;-1.367;-0.039;-4.2;-31.2;9.9;51.15;226;2018-04-16 22:31:26:396
3.129;1.957;7.52;0.301;3.238;9.252;2.801;-1.596;-2.129;0.58;-1.338;-0.239;-4.1;-31.2;9.9;51.15;236;2018-04-16 22:31:26:406
2.89;1.201;6.14;0.301;3.238;9.252;2.801;-1.596;-2.129;0.634;-1.637;-0.426;-3.7;-31.2;10.0;51.15;246;2018-04-16 22:31:26:416
2.887;1.281;4.847;0.615;3.36;9.193;2.178;-2.183;-4.025;0.651;-2.093;-0.509;-3.7;-31.2;10.0;51.15;256;2018-04-16 22:31:26:426
2.89;1.89;4.051;0.818;3.416;9.156;2.156;-1.965;-4.694;0.632;-2.647;-0.604;-3.4;-31.3;9.9;51.15;266;2018-04-16 22:31:26:436
2.89;1.89;4.051;0.818;3.416;9.156;2.156;-1.965;-4.694;0.632;-2.647;-0.604;-3.4;-31.3;9.9;51.15;276;2018-04-16 22:31:26:446
2.289;2.513;3.841;1.371;3.518;9.05;0.644;-0.796;-5.163;0.463;-3.379;-0.839;-3.1;-31.3;10.1;51.15;286;2018-04-16 22:31:26:456
2.289;2.513;3.841;1.371;3.518;9.05;0.644;-0.796;-5.163;0.463;-3.379;-0.839;-3.1;-31.3;10.1;51.15;296;2018-04-16 22:31:26:466
1.379;2.783;5.143;2.009;3.558;8.915;-0.639;-0.975;-3.135;-0.024;-4.059;-1.224;-2.6;-31.2;10.2;51.15;306;2018-04-16 22:31:26:476
1.705;1.987;7.29;2.009;3.558;8.915;-0.639;-0.975;-3.135;-0.335;-4.22;-1.282;-2.1;-31.2;10.2;51.15;315;2018-04-16 22:31:26:485
1.705;1.987;7.29;2.662;3.543;8.748;-0.337;-2.195;-0.156;-0.472;-4.03;-1.03;-2.1;-31.2;10.2;51.15;325;2018-04-16 22:31:26:495
3.039;0.813;9.465;2.998;3.514;8.65;0.041;-2.702;0.815;-0.478;-3.87;-0.885;-1.5;-31.2;10.3;51.15;335;2018-04-16 22:31:26:505
3.039;0.813;9.465;2.998;3.514;8.65;0.041;-2.702;0.815;-0.342;-2.804;-0.182;-1.5;-31.2;10.3;51.15;347;2018-04-16 22:31:26:517
2.728;0.886;10.465;3.501;3.469;8.478;-0.773;-2.583;1.987;-0.127;-2.266;0.15;-0.4;-31.1;10.2;51.15;355;2018-04-16 22:31:26:525
2.292;1.363;7.952;3.68;3.454;8.408;-1.387;-2.09;-0.456;-0.127;-2.266;0.15;-0.4;-31.1;10.2;51.15;365;2018-04-16 22:31:26:535
2.292;1.363;7.952;3.68;3.454;8.408;-1.387;-2.09;-0.456;0.093;-2.279;0.551;1.2;-31.0;9.8;51.59;376;2018-04-16 22:31:26:546
1.462;1.48;5.097;4.09;3.426;8.229;-2.628;-1.946;-3.131;0.164;-2.544;0.743;1.2;-31.0;9.8;51.59;387;2018-04-16 22:31:26:557
1.462;1.48;5.097;4.09;3.426;8.229;-2.628;-1.946;-3.131;0.164;-2.544;0.743;1.2;-31.0;9.8;51.59;396;2018-04-16 22:31:26:566
3.56;2.823;5.79;4.599;3.384;7.973;-1.039;-0.562;-2.182;0.209;-2.808;0.854;2.1;-30.9;10.3;51.59;406;2018-04-16 22:31:26:576
4.328;2.468;6.324;4.599;3.384;7.973;-1.039;-0.562;-2.182;0.144;-3.056;0.893;3.1;-30.4;9.6;51.59;415;2018-04-16 22:31:26:585
4.187;0.305;6.75;5.152;3.314;7.658;-0.853;-2.251;-1.055;0.134;-3.282;1.112;3.1;-30.4;9.6;51.59;425;2018-04-16 22:31:26:595
4.187;0.305;6.75;5.475;3.252;7.458;-1.38;-3.354;-0.718;0.134;-3.282;1.112;3.3;-30.9;10.0;51.59;436;2018-04-16 22:31:26:606
3.636;-1.205;6.511;5.475;3.252;7.458;-1.38;-3.354;-0.718;0.211;-3.327;1.542;3.3;-30.9;10.0;51.59;445;2018-04-16 22:31:26:615
3.147;-1.996;6.161;6.072;3.088;7.054;-2.925;-5.084;-0.893;0.316;-3.44;1.939;3.5;-31.1;9.6;51.59;455;2018-04-16 22:31:26:625
3.147;-1.996;6.161;6.072;3.088;7.054;-2.925;-5.084;-0.893;0.316;-3.44;1.939;3.5;-31.1;9.6;51.59;465;2018-04-16 22:31:26:635
3.039;-1.951;5.818;6.714;2.803;6.576;-3.483;-4.743;-1.059;0.503;-3.542;2.72;3.7;-31.0;8.9;51.59;475;2018-04-16 22:31:26:645
5.818;-1.556;4.848;6.714;2.803;6.576;-3.483;-4.743;-1.059;0.568;-3.434;3.414;4.0;-30.9;8.8;51.59;486;2018-04-16 22:31:26:656
5.818;-1.556;4.848;7.333;2.367;6.066;-0.849;-4.014;-1.224;0.485;-3.433;3.692;4.0;-30.9;8.8;51.59;496;2018-04-16 22:31:26:666
8.215;-1.095;5.32;7.333;2.367;6.066;-0.849;-4.014;-1.224;0.145;-3.442;3.863;3.7;-30.8;9.2;51.59;506;2018-04-16 22:31:26:676
8.215;-1.095;5.32;7.333;2.367;6.066;-0.849;-4.014;-1.224;0.145;-3.442;3.863;3.7;-30.8;9.2;51.59;516;2018-04-16 22:31:26:686
10.036;-0.424;6.242;7.894;1.78;5.54;2.143;-2.204;0.702;-0.006;-3.341;3.88;3.7;-30.9;8.8;51.59;526;2018-04-16 22:31:26:696
11.122;-1.032;6.272;8.292;1.087;5.121;2.83;-2.119;1.15;-0.53;-2.672;3.87;3.9;-30.9;8.9;51.59;536;2018-04-16 22:31:26:706
11.122;-1.032;6.272;8.292;1.087;5.121;2.83;-2.119;1.15;-0.53;-2.672;3.87;3.9;-30.9;8.9;51.59;546;2018-04-16 22:31:26:716
10.569;-2.265;6.601;8.552;0.291;4.79;1.91;-2.724;1.863;-1.056;-2.06;4.148;4.2;-31.0;8.8;51.59;556;2018-04-16 22:31:26:726
10.518;-3.291;7.23;8.552;0.291;4.79;1.91;-2.724;1.863;-1.148;-1.875;3.993;3.8;-31.2;8.2;51.59;565;2018-04-16 22:31:26:735
11.812;-2.331;8.273;8.708;-0.49;4.484;2.777;-2.237;3.384;-1.065;-1.566;3.778;3.8;-31.2;8.2;51.59;576;2018-04-16 22:31:26:746
11.812;-2.331;8.273;8.708;-0.49;4.484;2.777;-2.237;3.384;-0.963;-1.437;3.681;2.1;-31.4;6.8;51.59;585;2018-04-16 22:31:26:755
13.034;-2.006;8.932;8.769;-1.219;4.217;4.265;-0.787;4.715;-0.963;-1.437;3.681;2.1;-31.4;6.8;51.59;596;2018-04-16 22:31:26:766
15.226;-1.957;10.077;8.769;-1.219;4.217;4.265;-0.787;4.715;-0.919;-1.356;3.647;1.5;-31.4;7.6;51.59;606;2018-04-16 22:31:26:776
15.226;-1.957;10.077;8.756;-1.919;3.977;6.47;-0.038;6.1;-0.795;-1.15;3.578;-1.6;-31.8;5.2;51.59;616;2018-04-16 22:31:26:786
15.738;-2.48;10.791;8.756;-1.919;3.977;6.47;-0.038;6.1;-0.795;-1.15;3.578;-1.6;-31.8;5.2;51.59;626;2018-04-16 22:31:26:796
15.738;-2.48;10.791;8.756;-1.919;3.977;6.47;-0.038;6.1;-0.795;-1.15;3.578;-1.6;-31.8;5.2;51.59;635;2018-04-16 22:31:26:805
15.738;-2.48;10.791;8.756;-1.919;3.977;6.47;-0.038;6.1;-0.795;-1.15;3.578;-1.6;-31.8;5.2;51.59;645;2018-04-16 22:31:26:815
15.738;-2.48;10.791;8.756;-1.919;3.977;6.47;-0.038;6.1;-0.795;-1.15;3.578;-1.6;-31.8;5.2;51.59;656;2018-04-16 22:31:26:826
15.738;-2.48;10.791;8.756;-1.919;3.977;6.47;-0.038;6.1;-0.795;-1.15;3.578;-1.6;-31.8;5.2;51.59;666;2018-04-16 22:31:26:836
15.407;-2.61;10.617;8.668;-2.541;3.818;6.739;-0.068;6.799;-0.268;-0.698;3.256;-4.1;-31.6;5.4;51.59;676;2018-04-16 22:31:26:846
15.407;-2.61;10.617;8.668;-2.541;3.818;6.739;-0.068;6.799;-0.268;-0.698;3.256;-4.1;-31.6;5.4;51.59;686;2018-04-16 22:31:26:856
16.525;-0.816;6.853;8.668;-2.541;3.818;6.739;-0.068;6.799;1.295;-0.315;2.368;-8.6;-31.1;6.1;51.59;696;2018-04-16 22:31:26:866
17.268;-0.673;7.536;8.283;-3.6;3.821;8.498;2.851;3.161;1.123;0.023;2.106;-9.6;-29.3;7.8;51.31;705;2018-04-16 22:31:26:875
17.366;-0.802;7.715;8.113;-3.84;3.95;9.253;3.038;3.765;0.991;0.563;1.835;-9.6;-29.3;7.8;51.31;715;2018-04-16 22:31:26:885
17.366;-0.802;7.715;8.113;-3.84;3.95;9.253;3.038;3.765;0.82;1.519;1.3;-10.8;-28.6;6.9;51.31;725;2018-04-16 22:31:26:895
17.366;-0.802;7.715;8.113;-3.84;3.95;9.253;3.038;3.765;0.82;1.519;1.3;-10.8;-28.6;6.9;51.31;736;2018-04-16 22:31:26:906
17.366;-0.802;7.715;8.113;-3.84;3.95;9.253;3.038;3.765;0.82;1.519;1.3;-10.8;-28.6;6.9;51.31;746;2018-04-16 22:31:26:916
17.366;-0.802;7.715;8.113;-3.84;3.95;9.253;3.038;3.765;0.82;1.519;1.3;-10.8;-28.6;6.9;51.31;756;2018-04-16 22:31:26:926
17.366;-0.802;7.715;8.113;-3.84;3.95;9.253;3.038;3.765;0.82;1.519;1.3;-10.8;-28.6;6.9;51.31;766;2018-04-16 22:31:26:936
17.366;-0.802;7.715;8.113;-3.84;3.95;9.253;3.038;3.765;0.82;1.519;1.3;-10.8;-28.6;6.9;51.31;775;2018-04-16 22:31:26:945
17.366;-0.802;7.715;8.113;-3.84;3.95;9.253;3.038;3.765;0.82;1.519;1.3;-10.8;-28.6;6.9;51.31;786;2018-04-16 22:31:26:956
17.366;-0.802;7.715;8.113;-3.84;3.95;9.253;3.038;3.765;0.82;1.519;1.3;-10.8;-28.6;6.9;51.31;796;2018-04-16 22:31:26:966
17.366;-0.802;7.715;8.113;-3.84;3.95;9.253;3.038;3.765;0.82;1.519;1.3;-10.8;-28.6;6.9;51.31;806;2018-04-16 22:31:26:976
17.366;-0.802;7.715;8.113;-3.84;3.95;9.253;3.038;3.765;0.82;1.519;1.3;-10.8;-28.6;6.9;51.31;816;2018-04-16 22:31:26:986
17.366;-0.802;7.715;8.113;-3.84;3.95;9.253;3.038;3.765;0.82;1.519;1.3;-10.8;-28.6;6.9;51.31;826;2018-04-16 22:31:26:996
17.366;-0.802;7.715;8.113;-3.84;3.95;9.253;3.038;3.765;0.82;1.519;1.3;-10.8;-28.6;6.9;51.31;836;2018-04-16 22:31:27:006
17.366;-0.802;7.715;8.113;-3.84;3.95;9.253;3.038;3.765;0.82;1.519;1.3;-10.8;-28.6;6.9;51.31;846;2018-04-16 22:31:27:016
17.366;-0.802;7.715;8.113;-3.84;3.95;9.253;3.038;3.765;0.82;1.519;1.3;-10.8;-28.6;6.9;51.31;855;2018-04-16 22:31:27:025
17.366;-0.802;7.715;8.113;-3.84;3.95;9.253;3.038;3.765;0.82;1.519;1.3;-10.8;-28.6;6.9;51.31;866;2018-04-16 22:31:27:036
17.366;-0.802;7.715;8.113;-3.84;3.95;9.253;3.038;3.765;0.82;1.519;1.3;-10.8;-28.6;6.9;51.31;876;2018-04-16 22:31:27:046
17.366;-0.802;7.715;8.113;-3.84;3.95;9.253;3.038;3.765;0.82;1.519;1.3;-10.8;-28.6;6.9;51.31;886;2018-04-16 22:31:27:056
15.822;-1.088;6.768;7.887;-3.977;4.26;7.935;2.889;2.508;0.786;1.814;1.1;-12.3;-30.0;5.1;51.31;896;2018-04-16 22:31:27:066
5.219;-0.808;1.979;7.887;-3.977;4.26;7.935;2.889;2.508;2.958;-2.933;0.474;-13.4;-25.0;12.3;51.31;906;2018-04-16 22:31:27:076
5.219;-0.808;1.979;8.359;-3.756;3.492;-2.939;2.863;-1.276;2.808;-2.875;0.717;-13.4;-25.0;12.3;51.31;915;2018-04-16 22:31:27:085
6.021;-1.117;2.199;8.359;-3.756;3.492;-2.939;2.863;-1.276;2.808;-2.875;0.717;-13.5;-23.6;14.6;51.31;926;2018-04-16 22:31:27:096
6.021;-1.117;2.199;8.488;-3.705;3.225;-1.335;2.908;-1.622;2.625;-2.698;0.833;-13.5;-23.6;14.6;51.31;936;2018-04-16 22:31:27:106
7.481;-1.348;2.854;8.488;-3.705;3.225;-1.335;2.908;-1.622;2.028;-2.258;0.864;-13.0;-22.7;15.7;51.31;946;2018-04-16 22:31:27:116
7.476;-2.042;2.812;8.564;-3.727;2.989;-1.062;1.77;-0.488;1.858;-2.076;0.911;-13.0;-22.7;15.7;51.31;956;2018-04-16 22:31:27:126
7.476;-2.042;2.812;8.564;-3.727;2.989;-1.062;1.77;-0.488;1.741;-1.945;0.992;-12.4;-21.1;18.1;51.31;965;2018-04-16 22:31:27:135
6.153;-2.793;1.864;8.602;-3.8;2.781;-2.449;1.007;-0.918;1.741;-1.945;0.992;-12.4;-21.1;18.1;51.31;975;2018-04-16 22:31:27:145
5.92;-2.777;1.336;8.602;-3.8;2.781;-2.449;1.007;-0.918;1.406;-1.927;1.137;-11.7;-19.7;18.4;51.31;986;2018-04-16 22:31:27:156
5.92;-2.777;1.336;8.619;-3.926;2.542;-2.157;1.475;-1.413;1.104;-1.968;1.103;-11.7;-19.7;18.4;51.31;996;2018-04-16 22:31:27:166
7.849;-1.95;0.043;8.619;-3.926;2.542;-2.157;1.475;-1.413;0.808;-2.09;0.788;-11.5;-19.2;20.2;51.31;1006;2018-04-16 22:31:27:176
7.797;-0.261;2.321;8.683;-3.986;2.212;-0.942;3.097;0.383;0.705;-2.38;0.356;-11.5;-19.2;20.2;50.55;1016;2018-04-16 22:31:27:186
7.797;-0.261;2.321;8.683;-3.986;2.212;-0.942;3.097;0.383;0.751;-1.996;-0.236;-10.4;-18.4;22.0;50.55;1026;2018-04-16 22:31:27:196
6.552;-1.232;1.094;8.785;-3.916;1.913;-2.233;2.684;-0.819;0.782;-2.031;-0.387;-10.4;-18.4;22.0;50.55;1036;2018-04-16 22:31:27:206
6.967;-1.925;1.148;8.785;-3.916;1.913;-2.233;2.684;-0.819;0.595;-2.027;-0.382;-8.9;-17.6;22.3;50.55;1045;2018-04-16 22:31:27:215
6.967;-1.925;1.148;8.883;-3.832;1.607;-1.752;1.433;-0.028;0.425;-1.913;-0.216;-8.9;-17.6;22.3;50.55;1055;2018-04-16 22:31:27:225
8.575;-3.859;2.962;8.883;-3.832;1.607;-1.752;1.433;-0.028;0.326;-1.785;-0.018;-7.4;-17.1;23.2;50.55;1066;2018-04-16 22:31:27:236
10.952;-5.272;3.924;8.936;-3.817;1.323;1.747;-1.328;2.932;0.292;-1.61;0.022;-7.4;-17.1;23.2;50.55;1076;2018-04-16 22:31:27:246
10.952;-5.272;3.924;8.936;-3.817;1.323;1.747;-1.328;2.932;0.198;-1.133;-0.042;-6.9;-17.5;24.2;50.55;1086;2018-04-16 22:31:27:256
10.72;-4.717;0.672;8.966;-3.804;1.14;1.754;-0.912;-0.468;-0.072;-0.546;-0.104;-6.9;-17.5;24.2;50.55;1096;2018-04-16 22:31:27:266
11.011;-3.185;-1.665;8.966;-3.804;1.14;1.754;-0.912;-0.468;-0.487;-0.226;-0.183;-6.8;-16.9;24.4;50.55;1106;2018-04-16 22:31:27:276
11.011;-3.185;-1.665;8.988;-3.779;1.053;2.188;0.919;-2.763;-0.848;-0.266;-0.338;-6.8;-16.9;24.4;50.55;1115;2018-04-16 22:31:27:285
11.4;-2.185;-1.322;8.988;-3.779;1.053;2.188;0.919;-2.763;-1.042;-0.428;-0.574;-6.3;-17.3;24.5;50.55;1125;2018-04-16 22:31:27:295
9.276;-0.467;0.892;9.041;-3.691;0.898;2.354;2.71;-1.544;-1.106;-0.556;-0.914;-6.3;-17.3;24.5;50.55;1136;2018-04-16 22:31:27:306
9.276;-0.467;0.892;9.041;-3.691;0.898;2.354;2.71;-1.544;-0.969;-0.475;-1.034;-5.5;-16.8;25.0;50.55;1146;2018-04-16 22:31:27:316
7.809;-2.612;3.103;9.118;-3.531;0.752;-1.309;0.918;2.351;-0.778;-0.028;-0.646;-5.5;-16.8;25.0;50.55;1156;2018-04-16 22:31:27:326
8.461;-6.9;6.859;9.118;-3.531;0.752;-1.309;0.918;2.351;-0.551;1.091;0.283;-6.0;-17.9;24.3;50.55;1166;2018-04-16 22:31:27:336
8.461;-6.9;6.859;9.07;-3.61;0.932;-0.312;-4.325;6.306;-0.134;3.013;2.18;-6.0;-17.9;24.3;50.55;1176;2018-04-16 22:31:27:346
9.262;-9.858;4.849;9.07;-3.61;0.932;-0.312;-4.325;6.306;-0.044;2.935;2.897;-6.1;-17.9;23.3;50.55;1185;2018-04-16 22:31:27:355
9.284;-9.357;-2.885;8.801;-4.072;1.456;0.396;-5.872;-2.232;-0.38;1.35;2.828;-6.1;-17.9;23.3;50.55;1196;2018-04-16 22:31:27:366
9.284;-9.357;-2.885;8.801;-4.072;1.456;0.396;-5.872;-2.232;-0.826;-0.336;2.209;-8.3;-18.2;22.4;50.55;1206;2018-04-16 22:31:27:376
8.097;-8.946;0.164;8.574;-4.524;1.477;-0.477;-4.422;-1.313;-0.815;-1.21;1.475;-8.3;-18.2;22.4;50.55;1216;2018-04-16 22:31:27:386
6.95;-12.337;3.687;8.574;-4.524;1.477;-0.477;-4.422;-1.313;-0.414;-1.168;1.412;-7.9;-17.8;23.0;50.55;1226;2018-04-16 22:31:27:396
6.95;-12.337;3.687;8.463;-4.793;1.256;-1.959;-8.455;2.468;0.04;-0.567;1.891;-7.9;-17.8;23.0;50.55;1235;2018-04-16 22:31:27:405
6.727;-13.074;2.478;8.463;-4.793;1.256;-1.959;-8.455;2.468;0.285;-0.044;2.337;-7.6;-17.5;23.4;50.55;1245;2018-04-16 22:31:27:415
8.815;-10.968;0.291;8.237;-5.167;1.273;0.052;-7.011;0.024;0.213;0.353;2.413;-7.6;-17.5;23.4;50.55;1256;2018-04-16 22:31:27:426
8.815;-10.968;0.291;8.237;-5.167;1.273;0.052;-7.011;0.024;0.038;0.494;2.381;-7.3;-17.4;23.7;50.55;1266;2018-04-16 22:31:27:436
10.096;-6.603;-1.591;7.97;-5.552;1.349;2.126;-1.051;-2.94;-0.13;0.384;2.265;-7.3;-17.4;23.7;50.55;1276;2018-04-16 22:31:27:446
9.589;-4.749;-0.724;7.97;-5.552;1.349;2.126;-1.051;-2.94;-0.11;0.274;2.038;-7.2;-17.2;23.9;50.55;1286;2018-04-16 22:31:27:456
9.589;-4.749;-0.724;7.733;-5.872;1.378;1.787;0.868;-1.352;0.031;0.081;1.8;-7.2;-17.2;23.9;50.55;1296;2018-04-16 22:31:27:466
9.762;-5.906;1.901;7.733;-5.872;1.378;1.787;0.868;-1.352;0.232;0.006;1.555;-7.1;-17.1;24.0;50.55;1306;2018-04-16 22:31:27:476
8.21;-6.986;3.636;7.548;-6.1;1.41;1.529;-0.312;1.698;0.373;0.125;1.288;-7.1;-17.1;24.0;50.55;1316;2018-04-16 22:31:27:486
8.21;-6.986;3.636;7.548;-6.1;1.41;1.529;-0.312;1.698;0.421;0.329;1.155;-7.1;-17.1;24.0;50.55;1325;2018-04-16 22:31:27:495
6.812;-7.736;3.102;7.392;-6.266;1.506;-0.58;-1.47;1.596;0.242;0.527;1.224;-7.1;-17.1;24.0;49.26;1335;2018-04-16 22:31:27:505
5.452;-9.431;3.916;7.392;-6.266;1.506;-0.58;-1.47;1.596;0.242;0.527;1.224;-7.2;-17.0;24.0;49.26;1345;2018-04-16 22:31:27:515
5.452;-9.431;3.916;7.171;-6.469;1.703;-1.888;-3.501;4.457;0.161;1.549;1.544;-7.2;-17.0;24.0;49.26;1355;2018-04-16 22:31:27:525
6.251;-8.606;4.879;7.171;-6.469;1.703;-1.888;-3.501;4.457;0.099;2.809;1.902;-7.5;-16.9;24.0;49.26;1365;2018-04-16 22:31:27:535
7.724;-6.104;5.037;6.819;-6.725;2.109;0.509;-0.09;2.084;0.208;3.146;1.807;-7.5;-16.9;24.0;49.26;1376;2018-04-16 22:31:27:546
7.724;-6.104;5.037;6.819;-6.725;2.109;0.509;-0.09;2.084;0.639;2.892;1.5;-7.9;-16.8;24.0;49.26;1386;2018-04-16 22:31:27:556
7.635;-4.791;2.326;6.491;-6.884;2.578;1.144;2.094;-0.252;1.166;2.291;1.238;-7.9;-16.8;24.0;49.26;1396;2018-04-16 22:31:27:566
7.53;-2.751;-1.804;6.491;-6.884;2.578;1.144;2.094;-0.252;1.407;1.588;1.025;-9.0;-16.3;24.0;49.26;1406;2018-04-16 22:31:27:576
7.53;-2.751;-1.804;6.268;-6.933;2.97;1.357;4.87;-5.351;1.494;0.815;0.732;-9.0;-16.3;24.0;49.26;1416;2018-04-16 22:31:27:586
7.339;-0.327;-3.237;6.268;-6.933;2.97;1.357;4.87;-5.351;1.269;0.279;0.375;-10.8;-16.0;23.7;49.26;1426;2018-04-16 22:31:27:596
7.081;0.321;-1.858;6.199;-6.9;3.182;0.882;7.221;-5.04;0.907;0.227;0.004;-10.8;-16.0;23.7;49.26;1436;2018-04-16 22:31:27:606
7.081;0.321;-1.858;6.199;-6.9;3.182;0.882;7.221;-5.04;0.773;0.242;-0.352;-11.8;-14.8;23.8;49.26;1446;2018-04-16 22:31:27:616
6.631;-0.242;-0.606;6.238;-6.807;3.306;0.393;6.565;-3.912;0.619;-0.183;-0.806;-11.8;-14.8;23.8;49.26;1456;2018-04-16 22:31:27:626
7.11;-0.39;0.783;6.238;-6.807;3.306;0.393;6.565;-3.912;0.693;-0.461;-1.104;-12.9;-14.8;23.4;49.26;1466;2018-04-16 22:31:27:636
7.11;-0.39;0.783;6.391;-6.64;3.352;0.933;6.464;-2.796;0.568;-0.726;-1.425;-12.9;-14.8;23.4;49.26;1476;2018-04-16 22:31:27:646
6.758;0.102;-0.115;6.391;-6.64;3.352;0.933;6.464;-2.796;0.259;-0.894;-1.73;-12.9;-14.3;23.6;49.26;1486;2018-04-16 22:31:27:656
6.221;-1.038;0.158;6.654;-6.405;3.297;-0.524;5.689;-3.29;0.116;-0.974;-1.858;-12.9;-14.3;23.6;49.26;1495;2018-04-16 22:31:27:665
6.221;-1.038;0.158;6.654;-6.405;3.297;-0.524;5.689;-3.29;0.126;-1.14;-1.928;-12.8;-14.5;23.7;49.26;1505;2018-04-16 22:31:27:675
7.117;-1.968;-1.908;6.975;-6.133;3.147;0.142;4.165;-5.056;-0.002;-1.544;-2.046;-12.8;-14.5;23.7;49.26;1515;2018-04-16 22:31:27:685
7.465;-1.871;-3.065;6.975;-6.133;3.147;0.142;4.165;-5.056;-0.288;-2.244;-2.112;-12.7;-14.7;23.8;49.26;1525;2018-04-16 22:31:27:695
7.465;-1.871;-3.065;7.367;-5.845;2.781;0.431;4.663;-4.53;-0.472;-3.053;-2.202;-12.7;-14.7;23.8;49.26;1535;2018-04-16 22:31:27:705
8.173;0.346;1.173;7.367;-5.845;2.781;0.431;4.663;-4.53;-0.437;-3.437;-2.275;-12.7;-14.5;23.9;49.26;1546;2018-04-16 22:31:27:716
6.246;-0.933;2.077;7.791;-5.525;2.224;-1.98;5.903;1.764;-0.226;-3.304;-2.112;-12.7;-14.5;23.9;49.26;1556;2018-04-16 22:31:27:726
6.246;-0.933;2.077;7.791;-5.525;2.224;-1.98;5.903;1.764;-0.516;-2.842;-2.12;-12.9;-14.5;23.8;49.26;1566;2018-04-16 22:31:27:736
7.994;-4.585;2.328;8.132;-5.206;1.714;-0.138;0.621;0.614;-1.172;-2.31;-2.224;-12.9;-14.5;23.8;49.26;1576;2018-04-16 22:31:27:746
6.355;-7.205;5.165;8.132;-5.206;1.714;-0.138;0.621;0.614;-1.371;-2.02;-1.852;-12.9;-14.4;23.9;49.26;1586;2018-04-16 22:31:27:756
6.355;-7.205;5.165;8.373;-4.951;1.243;-2.326;-3.029;4.126;-1.068;-2.263;-1.166;-12.9;-14.4;23.9;49.26;1596;2018-04-16 22:31:27:766
5.543;-9.288;5.329;8.373;-4.951;1.243;-2.326;-3.029;4.126;-0.627;-2.462;-0.395;-12.2;-14.4;24.4;49.26;1606;2018-04-16 22:31:27:776
6.92;-7.969;2.052;8.458;-4.901;0.774;-2.399;-3.688;3.066;-0.332;-2.353;0.247;-12.2;-14.4;24.4;49.26;1616;2018-04-16 22:31:27:786
6.92;-7.969;2.052;8.458;-4.901;0.774;-2.399;-3.688;3.066;-0.364;-2.236;0.569;-10.5;-15.0;24.6;49.26;1626;2018-04-16 22:31:27:796
9.867;-5.702;0.425;8.431;-4.997;0.345;1.436;-0.704;0.08;-0.627;-2.183;0.536;-10.5;-15.0;24.6;49.26;1636;2018-04-16 22:31:27:806
10.851;-5.493;-0.162;8.431;-4.997;0.345;1.436;-0.704;0.08;-0.994;-1.742;0.327;-8.6;-15.6;24.0;49.26;1646;2018-04-16 22:31:27:816
10.851;-5.493;-0.162;8.404;-5.053;-0.035;1.698;-0.418;-0.881;-1.453;-1.114;0.159;-8.6;-15.6;24.0;49.83;1656;2018-04-16 22:31:27:826
8.432;-4.651;-1.143;8.404;-5.053;-0.035;1.698;-0.418;-0.881;-1.798;-0.615;0.123;-7.1;-16.0;25.1;49.83;1666;2018-04-16 22:31:27:836
5.944;-3.646;-0.857;8.389;-5.069;-0.318;-1.829;1.642;0.737;-1.956;0.044;0.286;-7.1;-16.0;25.1;49.83;1676;2018-04-16 22:31:27:846
5.944;-3.646;-0.857;8.389;-5.069;-0.318;-1.829;1.642;0.737;-2.016;0.637;0.689;-6.6;-17.1;24.8;49.83;1686;2018-04-16 22:31:27:856
4.662;-5.331;-3.164;8.317;-5.178;-0.431;-3.655;-0.153;-2.733;-2.204;0.762;1.374;-6.6;-17.1;24.8;49.83;1695;2018-04-16 22:31:27:865
3.649;-10.908;-3.922;8.317;-5.178;-0.431;-3.655;-0.153;-2.733;-2.246;0.681;2.733;-6.9;-18.3;22.8;49.83;1705;2018-04-16 22:31:27:875
3.649;-10.908;-3.922;8.01;-5.629;-0.566;-4.511;-6.373;-3.425;-2.17;0.396;4.706;-6.9;-18.3;22.8;49.83;1715;2018-04-16 22:31:27:885
3.682;-12.434;-3.699;8.01;-5.629;-0.566;-4.511;-6.373;-3.425;-1.95;0.049;6.641;-7.3;-18.7;23.7;49.83;1725;2018-04-16 22:31:27:895
5.781;-10.399;0.211;7.194;-6.618;-0.786;-2.211;-4.706;-0.231;-1.007;0.162;8.384;-7.3;-18.7;23.7;49.83;1736;2018-04-16 22:31:27:906
5.781;-10.399;0.211;7.194;-6.618;-0.786;-2.211;-4.706;-0.231;0.067;0.549;8.715;-8.5;-19.1;22.8;49.83;1746;2018-04-16 22:31:27:916
7.043;-8.023;0.527;5.971;-7.738;-0.794;1.071;-0.285;1.321;1.065;0.608;8.47;-8.5;-19.1;22.8;49.83;1756;2018-04-16 22:31:27:926
7.785;-3.444;1.317;5.971;-7.738;-0.794;1.071;-0.285;1.321;1.867;0.724;7.506;-10.4;-16.8;24.5;49.83;1766;2018-04-16 22:31:27:936
7.785;-3.444;1.317;4.692;-8.599;-0.469;3.334;7.115;0.757;2.376;0.816;5.406;-10.4;-16.8;24.5;49.83;1776;2018-04-16 22:31:27:946
7.344;0.397;-2.309;4.692;-8.599;-0.469;3.334;7.115;0.757;2.432;0.01;3.109;-11.1;-15.9;23.9;49.83;1786;2018-04-16 22:31:27:956
3.922;-1.097;-2.96;4.139;-8.89;-0.068;0.791;8.268;-3.224;2.074;-1.607;1.848;-11.1;-15.9;23.9;49.83;1796;2018-04-16 22:31:27:966
3.922;-1.097;-2.96;4.139;-8.89;-0.068;0.791;8.268;-3.224;1.692;-2.854;1.488;-11.1;-14.2;24.7;49.83;1806;2018-04-16 22:31:27:976
2.279;-2.683;1.317;3.865;-9.013;0.022;-1.586;6.33;1.295;1.64;-3.246;1.55;-11.1;-14.2;24.7;49.83;1815;2018-04-16 22:31:27:985
0.376;-3.534;3.996;3.865;-9.013;0.022;-1.586;6.33;1.295;1.751;-3.064;1.803;-10.6;-13.1;24.4;49.83;1825;2018-04-16 22:31:27:995
0.376;-3.534;3.996;3.533;-9.147;0.116;-3.202;5.239;4.094;1.784;-2.522;2.139;-10.6;-13.1;24.4;49.83;1835;2018-04-16 22:31:28:005
0.284;-4.241;4.323;3.533;-9.147;0.116;-3.202;5.239;4.094;1.618;-1.789;2.451;-10.0;-12.5;26.5;49.83;1845;2018-04-16 22:31:28:015
0.383;-4.482;3.146;3.091;-9.302;0.284;-2.758;4.715;3.384;1.123;-0.975;2.705;-10.0;-12.5;26.5;49.83;1855;2018-04-16 22:31:28:025
0.383;-4.482;3.146;3.091;-9.302;0.284;-2.758;4.715;3.384;0.4;-0.263;2.93;-10.1;-10.7;27.0;49.83;1865;2018-04-16 22:31:28:035
0.306;-3.214;1.013;2.542;-9.465;0.337;-2.235;6.251;0.676;-0.211;-0.039;3.093;-10.1;-10.7;27.0;49.83;1875;2018-04-16 22:31:28:045
0.227;-1.909;0.339;2.542;-9.465;0.337;-2.235;6.251;0.676;-0.336;-0.32;3.22;-10.1;-10.3;26.1;49.83;1885;2018-04-16 22:31:28:055
0.227;-1.909;0.339;1.928;-9.611;0.269;-1.727;7.811;0.073;-0.068;-0.82;3.351;-10.1;-10.3;26.1;49.83;1895;2018-04-16 22:31:28:065
0.002;-1.689;-0.487;1.928;-9.611;0.269;-1.727;7.811;0.073;0.193;-1.381;3.457;-10.3;-9.6;25.9;49.83;1906;2018-04-16 22:31:28:076
2.676;-23.546;0.275;1.269;-9.721;0.261;0.628;-0.67;-0.024;0.451;-2.062;3.526;-10.3;-9.6;25.9;49.83;1916;2018-04-16 22:31:28:086
2.676;-23.546;0.275;1.269;-9.721;0.261;0.628;-0.67;-0.024;0.854;-3.064;4.347;-9.4;-7.4;26.9;49.83;1926;2018-04-16 22:31:28:096
-7.535;-39.185;6.795;0.369;-9.793;0.353;-7.904;-29.391;6.441;0.854;-3.064;4.347;-9.4;-7.4;26.9;49.83;1936;2018-04-16 22:31:28:106
2.579;-39.185;0.933;0.369;-9.793;0.353;-7.904;-29.391;6.441;0.517;-2.602;8.8;-9.3;-5.8;27.3;49.83;1946;2018-04-16 22:31:28:116
2.579;-39.185;0.933;-1.594;-9.666;0.446;12.026;-25.686;-3.894;0.275;-1.629;11.241;-9.3;-5.8;27.3;49.83;1956;2018-04-16 22:31:28:126
23.33;-16.461;-9.694;-1.594;-9.666;0.446;12.026;-25.686;-3.894;-2.127;-4.535;3.657;-7.0;-4.6;26.9;49.83;1966;2018-04-16 22:31:28:136
4.409;-10.561;-0.302;-2.199;-9.554;0.232;14.942;0.425;-3.328;-3.486;-6.04;-2.903;-7.0;-4.6;26.9;49.83;1975;2018-04-16 22:31:28:145
4.409;-10.561;-0.302;-2.199;-9.554;0.232;14.942;0.425;-3.328;-3.933;-6.096;-4.806;-4.3;-5.8;29.1;49.83;1985;2018-04-16 22:31:28:155
-5.24;-9.315;-1.015;-1.336;-9.712;-0.264;-3.904;0.397;-0.752;-2.881;-7.617;-4.129;-4.3;-5.8;29.1;63.8;1995;2018-04-16 22:31:28:165
-5.983;-6.452;5.986;-1.336;-9.712;-0.264;-3.904;0.397;-0.752;-1.21;-9.354;-2.994;-2.4;-6.7;29.0;63.8;2006;2018-04-16 22:31:28:176
-5.983;-6.452;5.986;-0.821;-9.767;-0.309;-5.437;3.046;7.55;0.15;-8.463;-1.365;-2.4;-6.7;29.0;63.8;2016;2018-04-16 22:31:28:186
-5.853;-6.0;9.041;-0.821;-9.767;-0.309;-5.437;3.046;7.55;0.706;-6.6;-0.58;1.0;-7.0;26.8;63.8;2026;2018-04-16 22:31:28:196
-5.994;-5.887;11.141;-0.671;-9.783;-0.107;-5.097;3.96;10.388;1.245;-4.362;-0.153;1.0;-7.0;26.8;63.8;2036;2018-04-16 22:31:28:206
-5.994;-5.887;11.141;-0.671;-9.783;-0.107;-5.097;3.96;10.388;1.712;-1.792;-0.006;4.4;-6.4;27.5;63.8;2046;2018-04-16 22:31:28:216
-4.855;-5.713;8.276;-0.658;-9.782;0.224;-4.198;4.069;8.052;1.847;0.528;-0.316;4.4;-6.4;27.5;63.8;2055;2018-04-16 22:31:28:225
-4.745;-6.991;4.683;-0.658;-9.782;0.224;-4.198;4.069;8.052;1.676;2.382;-0.929;6.7;-5.1;28.1;63.8;2065;2018-04-16 22:31:28:235
-4.745;-6.991;4.683;-0.526;-9.777;0.542;-5.487;1.406;0.801;1.527;3.348;-1.222;6.7;-5.1;28.1;63.8;2076;2018-04-16 22:31:28:246
-9.196;-11.958;-10.241;-0.526;-9.777;0.542;-5.487;1.406;0.801;1.635;1.693;-0.718;6.2;-2.8;30.1;63.8;2086;2018-04-16 22:31:28:256
-6.516;-11.548;-9.738;-0.422;-9.762;0.834;-8.136;-2.897;-12.244;1.373;-0.222;0.071;6.2;-2.8;30.1;63.8;2096;2018-04-16 22:31:28:266
-6.516;-11.548;-9.738;-0.422;-9.762;0.834;-8.136;-2.897;-12.244;0.646;-0.954;0.461;5.4;-3.2;27.8;63.8;2106;2018-04-16 22:31:28:276
-3.527;-9.432;-4.384;-0.49;-9.748;0.954;-3.037;0.316;-5.338;-0.264;-0.629;0.517;5.4;-3.2;27.8;63.8;2116;2018-04-16 22:31:28:286
-3.351;-8.158;0.394;-0.49;-9.748;0.954;-3.037;0.316;-5.338;-1.052;0.312;0.558;6.4;-2.9;28.2;63.8;2126;2018-04-16 22:31:28:296
-3.351;-8.158;0.394;-0.616;-9.759;0.742;-2.777;1.742;0.338;-1.566;1.304;0.674;6.4;-2.9;28.2;63.8;2136;2018-04-16 22:31:28:306
-3.328;-8.113;1.486;-0.616;-9.759;0.742;-2.777;1.742;0.338;-1.828;2.109;0.795;6.7;-3.8;30.2;63.8;2146;2018-04-16 22:31:28:316
-2.975;-9.189;1.111;-0.805;-9.767;0.363;-2.318;1.15;0.981;-1.894;2.644;0.869;6.7;-3.8;30.2;63.8;2156;2018-04-16 22:31:28:326
-2.975;-9.189;1.111;-0.805;-9.767;0.363;-2.318;1.15;0.981;-1.758;2.87;0.915;5.8;-4.6;29.0;63.8;2166;2018-04-16 22:31:28:336
-2.662;-10.86;0.797;-1.003;-9.755;-0.017;-1.66;-1.105;0.814;-1.758;2.87;0.915;5.8;-4.6;29.0;63.8;2176;2018-04-16 22:31:28:346
-1.336;-10.786;1.046;-1.003;-9.755;-0.017;-1.66;-1.105;0.814;-0.997;2.541;1.019;4.6;-5.3;27.1;63.8;2186;2018-04-16 22:31:28:356
-1.336;-10.786;1.046;-1.183;-9.733;-0.213;0.103;-0.853;1.241;-0.518;2.346;0.907;4.6;-5.3;27.1;63.8;2196;2018-04-16 22:31:28:366
-1.122;-10.543;1.136;-1.183;-9.733;-0.213;0.103;-0.853;1.241;-0.257;2.379;0.688;2.7;-6.5;28.7;63.8;2206;2018-04-16 22:31:28:376
-1.08;-10.797;1.167;-1.286;-9.717;-0.315;0.052;-1.113;1.515;-0.16;2.604;0.525;2.7;-6.5;28.7;63.8;2216;2018-04-16 22:31:28:386
-1.08;-10.797;1.167;-1.286;-9.717;-0.315;0.052;-1.113;1.515;-0.053;2.983;0.52;2.1;-6.0;30.4;63.8;2226;2018-04-16 22:31:28:396
-0.101;-10.184;0.988;-1.362;-9.703;-0.399;1.262;-0.48;1.386;0.07;3.047;0.509;2.1;-6.0;30.4;63.8;2235;2018-04-16 22:31:28:405
0.285;-9.722;0.379;-1.362;-9.703;-0.399;1.262;-0.48;1.386;0.238;2.887;0.452;1.2;-6.5;30.0;63.8;2245;2018-04-16 22:31:28:415
0.285;-9.722;0.379;-1.408;-9.696;-0.422;1.654;0.017;0.672;0.369;2.615;0.38;1.2;-6.5;30.0;63.8;2256;2018-04-16 22:31:28:426
0.067;-9.655;0.043;-1.408;-9.696;-0.422;1.654;0.017;0.672;0.456;2.265;0.332;1.1;-5.5;28.4;63.8;2266;2018-04-16 22:31:28:436
-0.016;-9.884;0.007;-1.439;-9.692;-0.393;1.457;-0.093;0.394;0.516;1.89;0.285;1.1;-5.5;28.4;63.8;2276;2018-04-16 22:31:28:446
-0.016;-9.884;0.007;-1.439;-9.692;-0.393;1.457;-0.093;0.394;0.546;1.516;0.241;1.1;-5.5;28.9;63.8;2286;2018-04-16 22:31:28:456
-0.043;-10.126;0.096;-1.464;-9.691;-0.327;1.421;-0.435;0.423;0.542;0.992;0.155;1.1;-5.5;28.9;63.8;2296;2018-04-16 22:31:28:466
-0.104;-10.11;0.236;-1.464;-9.691;-0.327;1.421;-0.435;0.423;0.494;0.732;0.089;1.0;-5.2;28.6;63.8;2306;2018-04-16 22:31:28:476
-0.104;-10.11;0.236;-1.474;-9.692;-0.249;1.407;-0.316;0.523;0.42;0.55;0.035;1.0;-5.2;28.6;67.22;2316;2018-04-16 22:31:28:486
-0.043;-9.784;0.305;-1.474;-9.692;-0.249;1.407;-0.316;0.523;0.337;0.396;0.012;0.0;-4.5;30.0;67.22;2326;2018-04-16 22:31:28:496
0.057;-9.353;0.34;-1.463;-9.695;-0.183;1.48;0.222;0.508;0.26;0.26;0.01;0.0;-4.5;30.0;67.22;2336;2018-04-16 22:31:28:506
0.057;-9.353;0.34;-1.463;-9.695;-0.183;1.48;0.222;0.508;0.189;0.137;0.012;-1.2;-5.0;30.2;67.22;2346;2018-04-16 22:31:28:516
0.182;-9.141;0.267;-1.456;-9.697;-0.148;1.638;0.556;0.415;0.117;0.023;0.007;-1.2;-5.0;30.2;67.22;2356;2018-04-16 22:31:28:526
0.12;-9.451;0.183;-1.456;-9.697;-0.148;1.638;0.556;0.415;0.05;-0.081;0.02;-1.4;-4.8;28.5;67.22;2366;2018-04-16 22:31:28:536
0.12;-9.451;0.183;-1.447;-9.698;-0.134;1.567;0.146;0.298;-0.022;-0.197;0.017;-1.4;-4.8;28.5;67.22;2376;2018-04-16 22:31:28:546
0.0;-9.759;0.181;-1.447;-9.698;-0.134;1.567;0.146;0.298;-0.084;-0.318;-0.004;-1.4;-5.0;29.3;67.22;2386;2018-04-16 22:31:28:556
-0.34;-9.904;0.345;-1.435;-9.7;-0.137;1.249;-0.162;0.389;-0.127;-0.428;-0.023;-1.4;-5.0;29.3;67.22;2395;2018-04-16 22:31:28:565
-0.34;-9.904;0.345;-1.435;-9.7;-0.137;1.249;-0.162;0.389;-0.15;-0.5;-0.037;-1.3;-4.7;28.8;67.22;2405;2018-04-16 22:31:28:575
-0.587;-9.776;0.432;-1.42;-9.702;-0.146;0.834;-0.073;0.578;-0.161;-0.528;-0.062;-1.3;-4.7;28.8;67.22;2416;2018-04-16 22:31:28:586
-0.886;-9.512;0.371;-1.42;-9.702;-0.146;0.834;-0.073;0.578;-0.164;-0.53;-0.093;-1.5;-5.3;29.3;67.22;2426;2018-04-16 22:31:28:596
-0.886;-9.512;0.371;-1.399;-9.705;-0.158;0.423;0.222;0.475;-0.159;-0.524;-0.12;-1.5;-5.3;29.3;67.22;2436;2018-04-16 22:31:28:606
-1.198;-9.433;0.166;-1.399;-9.705;-0.158;0.423;0.222;0.475;-0.159;-0.523;-0.133;-1.1;-5.3;29.5;67.22;2446;2018-04-16 22:31:28:616
-1.512;-9.489;-0.025;-1.374;-9.708;-0.17;0.005;0.266;0.214;-0.131;-0.557;-0.145;-1.1;-5.3;29.5;67.22;2456;2018-04-16 22:31:28:626
-1.512;-9.489;-0.025;-1.374;-9.708;-0.17;0.005;0.266;0.214;-0.071;-0.635;-0.149;-1.2;-5.4;29.3;67.22;2466;2018-04-16 22:31:28:636
-1.8;-9.674;-0.278;-1.35;-9.712;-0.165;-0.45;0.038;-0.113;0.077;-0.815;-0.16;-1.2;-5.4;29.3;67.22;2476;2018-04-16 22:31:28:646
-2.229;-9.785;-0.597;-1.35;-9.712;-0.165;-0.45;0.038;-0.113;0.503;-1.363;-0.208;-1.8;-5.5;29.6;67.22;2486;2018-04-16 22:31:28:656
-2.229;-9.785;-0.597;-1.319;-9.717;-0.029;-1.095;-0.119;-0.452;0.943;-1.951;-0.23;-1.8;-5.5;29.6;67.22;2496;2018-04-16 22:31:28:666
-2.68;-9.914;-0.215;-1.319;-9.717;-0.029;-1.095;-0.119;-0.452;1.087;-2.165;-0.203;-2.1;-5.3;29.6;67.22;2505;2018-04-16 22:31:28:675
-2.799;-9.667;-0.532;-1.284;-9.72;0.229;-1.466;-0.069;-0.473;0.986;-2.079;-0.144;-2.1;-5.3;29.6;67.22;2515;2018-04-16 22:31:28:685
-2.799;-9.667;-0.532;-1.284;-9.72;0.229;-1.466;-0.069;-0.473;0.83;-1.932;-0.103;-2.3;-5.2;29.6;67.22;2526;2018-04-16 22:31:28:696
-3.045;-9.425;-1.526;-1.263;-9.715;0.429;-1.782;0.291;-1.955;0.702;-1.833;-0.071;-2.3;-5.2;29.6;67.22;2536;2018-04-16 22:31:28:706
-3.27;-9.468;-2.164;-1.263;-9.715;0.429;-1.782;0.291;-1.955;0.702;-1.833;-0.071;-2.3;-4.9;29.5;67.22;2546;2018-04-16 22:31:28:716
-3.27;-9.468;-2.164;-1.249;-9.71;0.565;-2.016;0.203;-2.665;0.483;-1.61;-0.024;-2.3;-4.9;29.5;67.22;2556;2018-04-16 22:31:28:726
-3.077;-9.612;-1.623;-1.249;-9.71;0.565;-2.016;0.203;-2.665;0.076;-1.048;0.064;-2.1;-4.8;29.6;67.22;2566;2018-04-16 22:31:28:736
-2.376;-9.572;-0.615;-1.259;-9.707;0.59;-1.42;0.076;-1.575;0.076;-1.048;0.064;-2.1;-4.8;29.6;67.22;2576;2018-04-16 22:31:28:746
-2.376;-9.572;-0.615;-1.259;-9.707;0.59;-1.42;0.076;-1.575;-0.441;-0.173;0.148;-1.8;-4.6;29.6;67.22;2586;2018-04-16 22:31:28:756
-2.0;-9.619;0.047;-1.299;-9.709;0.463;-0.701;0.09;-0.417;-0.729;0.398;0.164;-1.8;-4.6;29.6;67.22;2596;2018-04-16 22:31:28:766
-1.693;-9.689;0.577;-1.299;-9.709;0.463;-0.701;0.09;-0.417;-0.96;1.185;0.178;-1.5;-4.5;29.7;67.22;2606;2018-04-16 22:31:28:776
-1.693;-9.689;0.577;-1.344;-9.711;0.256;-0.222;0.027;0.4;-0.886;1.381;0.156;-1.5;-4.5;29.7;67.22;2616;2018-04-16 22:31:28:786
-1.378;-9.607;0.755;-1.344;-9.711;0.256;-0.222;0.027;0.4;-0.698;1.458;0.116;-1.2;-4.5;29.6;67.22;2625;2018-04-16 22:31:28:795
-1.296;-9.6;0.813;-1.37;-9.71;0.089;0.082;0.127;0.705;-0.452;1.451;0.065;-1.2;-4.5;29.6;48.73;2635;2018-04-16 22:31:28:805
-1.296;-9.6;0.813;-1.37;-9.71;0.089;0.082;0.127;0.705;-0.222;1.433;0.022;-0.9;-4.5;29.6;48.73;2645;2018-04-16 22:31:28:815
-1.422;-9.603;0.752;-1.376;-9.71;0.015;-0.046;0.106;0.737;-0.222;1.433;0.022;-0.9;-4.5;29.6;48.73;2655;2018-04-16 22:31:28:825
-1.627;-9.635;0.521;-1.376;-9.71;0.015;-0.046;0.106;0.737;-0.027;1.482;-0.002;-0.6;-4.5;29.7;48.73;2665;2018-04-16 22:31:28:835
-1.627;-9.635;0.521;-1.379;-9.709;-0.021;-0.225;0.07;0.414;0.027;1.539;0.005;-0.6;-4.5;29.7;48.73;2675;2018-04-16 22:31:28:845
-1.466;-9.585;0.127;-1.379;-9.709;-0.021;-0.225;0.07;0.414;0.044;1.519;0.006;-0.4;-4.5;29.7;48.73;2686;2018-04-16 22:31:28:856
-1.334;-9.477;-0.11;-1.379;-9.709;-0.054;0.036;0.216;0.014;0.034;1.437;-0.009;-0.4;-4.5;29.7;48.73;2696;2018-04-16 22:31:28:866
-1.334;-9.477;-0.11;-1.379;-9.709;-0.054;0.036;0.216;0.014;0.034;1.437;-0.009;-0.3;-4.6;29.7;48.73;2706;2018-04-16 22:31:28:876
-1.322;-9.583;-0.34;-1.373;-9.71;-0.087;0.052;0.127;-0.253;0.017;1.236;-0.017;-0.3;-4.6;29.7;48.73;2716;2018-04-16 22:31:28:886
-1.1;-9.614;-0.536;-1.373;-9.71;-0.087;0.052;0.127;-0.253;0.024;0.903;0.007;-0.3;-4.6;29.7;48.73;2726;2018-04-16 22:31:28:896
-1.1;-9.614;-0.536;-1.369;-9.71;-0.111;0.328;0.144;-0.475;0.024;0.903;0.007;-0.3;-4.6;29.7;48.73;2736;2018-04-16 22:31:28:906
-1.047;-9.633;-0.559;-1.369;-9.71;-0.111;0.328;0.144;-0.475;0.054;0.484;-0.024;-0.3;-4.6;29.6;48.73;2746;2018-04-16 22:31:28:916
-1.047;-9.633;-0.559;-1.36;-9.711;-0.113;0.201;-0.008;-0.393;0.061;0.21;-0.032;-0.3;-4.6;29.6;48.73;2756;2018-04-16 22:31:28:926
-1.146;-9.655;-0.46;-1.36;-9.711;-0.113;0.201;-0.008;-0.393;0.06;-0.035;-0.017;-0.3;-4.6;29.8;48.73;2766;2018-04-16 22:31:28:936
-1.359;-9.645;-0.305;-1.355;-9.712;-0.102;0.119;0.067;-0.276;0.04;-0.257;-0.022;-0.3;-4.6;29.8;48.73;2776;2018-04-16 22:31:28:946
-1.359;-9.645;-0.305;-1.355;-9.712;-0.102;0.119;0.067;-0.276;0.023;-0.439;-0.034;-0.3;-4.6;29.7;48.73;2786;2018-04-16 22:31:28:956
-1.494;-9.588;-0.12;-1.351;-9.713;-0.085;-0.143;0.125;-0.034;0.023;-0.439;-0.034;-0.3;-4.6;29.7;48.73;2796;2018-04-16 22:31:28:966
-1.607;-9.57;0.02;-1.351;-9.713;-0.085;-0.143;0.125;-0.034;0.016;-0.702;-0.02;-0.4;-4.6;29.7;48.73;2806;2018-04-16 22:31:28:976
-1.607;-9.57;0.02;-1.35;-9.713;-0.06;-0.306;0.129;0.103;0.031;-0.794;-0.024;-0.4;-4.6;29.7;48.73;2816;2018-04-16 22:31:28:986
-1.8;-9.622;0.102;-1.35;-9.713;-0.06;-0.306;0.129;0.103;0.078;-0.899;-0.021;-0.5;-4.7;29.6;48.73;2826;2018-04-16 22:31:28:996
-1.869;-9.55;0.13;-1.352;-9.713;-0.018;-0.502;0.14;0.145;0.128;-0.951;-0.013;-0.5;-4.7;29.6;48.73;2836;2018-04-16 22:31:29:006
-1.869;-9.55;0.13;-1.352;-9.713;-0.018;-0.502;0.14;0.145;0.128;-0.951;-0.013;-0.7;-4.8;29.7;48.73;2845;2018-04-16 22:31:29:015
-1.955;-9.533;0.153;-1.356;-9.712;0.044;-0.599;0.18;0.109;0.205;-0.996;-0.011;-0.7;-4.8;29.7;48.73;2856;2018-04-16 22:31:29:026
-1.954;-9.555;0.11;-1.356;-9.712;0.044;-0.599;0.18;0.109;0.249;-0.996;-0.007;-0.9;-4.9;29.6;48.73;2865;2018-04-16 22:31:29:035
-1.954;-9.555;0.11;-1.36;-9.711;0.124;-0.581;0.15;-0.049;0.329;-0.948;0.013;-0.9;-4.9;29.6;48.73;2876;2018-04-16 22:31:29:046
-1.879;-9.589;-0.092;-1.36;-9.711;0.124;-0.581;0.15;-0.049;0.373;-0.914;0.02;-1.1;-5.1;29.5;48.73;2886;2018-04-16 22:31:29:056
-1.694;-9.629;-0.487;-1.364;-9.709;0.213;-0.372;0.091;-0.58;0.386;-0.871;0.02;-1.1;-5.1;29.5;48.73;2896;2018-04-16 22:31:29:066
-1.694;-9.629;-0.487;-1.364;-9.709;0.213;-0.372;0.091;-0.58;0.359;-0.787;0.007;-1.3;-5.1;29.5;48.73;2905;2018-04-16 22:31:29:075
-1.607;-9.67;-0.749;-1.364;-9.707;0.294;-0.242;0.037;-1.043;0.287;-0.657;-0.007;-1.3;-5.1;29.5;48.73;2915;2018-04-16 22:31:29:085
-1.59;-9.619;-0.833;-1.364;-9.707;0.294;-0.242;0.037;-1.043;0.176;-0.481;-0.015;-1.4;-5.1;29.4;48.73;2926;2018-04-16 22:31:29:096
-1.59;-9.619;-0.833;-1.361;-9.706;0.327;-0.254;0.102;-1.155;0.176;-0.481;-0.015;-1.4;-5.1;29.4;48.73;2936;2018-04-16 22:31:29:106
-1.666;-9.573;-0.713;-1.361;-9.706;0.327;-0.254;0.102;-1.155;-0.034;-0.142;-0.021;-1.4;-5.1;29.4;48.73;2946;2018-04-16 22:31:29:116
-1.733;-9.602;-0.37;-1.36;-9.707;0.296;-0.339;0.13;-0.826;-0.233;0.216;-0.018;-1.4;-5.1;29.4;48.78;2955;2018-04-16 22:31:29:125
-1.733;-9.602;-0.37;-1.36;-9.707;0.296;-0.339;0.13;-0.826;-0.321;0.426;-0.017;-1.4;-5.0;29.3;48.78;2966;2018-04-16 22:31:29:136
-1.765;-9.637;-0.011;-1.363;-9.709;0.219;-0.402;0.072;-0.23;-0.36;0.591;-0.018;-1.4;-5.0;29.3;48.78;2976;2018-04-16 22:31:29:146
-1.745;-9.647;0.247;-1.363;-9.709;0.219;-0.402;0.072;-0.23;-0.351;0.712;-0.017;-1.3;-5.0;29.3;48.78;2985;2018-04-16 22:31:29:155
-1.745;-9.647;0.247;-1.366;-9.71;0.133;-0.375;0.07;0.157;-0.312;0.788;-0.017;-1.3;-5.0;29.3;48.78;2996;2018-04-16 22:31:29:166
-1.663;-9.609;0.353;-1.366;-9.71;0.133;-0.375;0.07;0.157;-0.252;0.837;-0.02;-1.1;-4.9;29.4;48.78;3007;2018-04-16 22:31:29:177
-1.598;-9.614;0.353;-1.366;-9.711;0.065;-0.232;0.097;0.288;-0.252;0.837;-0.02;-1.1;-4.9;29.4;48.78;3016;2018-04-16 22:31:29:186
-1.598;-9.614;0.353;-1.366;-9.711;0.065;-0.232;0.097;0.288;-0.252;0.837;-0.02;-1.1;-4.9;29.4;48.78;3026;2018-04-16 22:31:29:196
-1.598;-9.614;0.353;-1.366;-9.711;0.065;-0.232;0.097;0.288;-0.252;0.837;-0.02;-1.1;-4.9;29.4;48.78;3036;2018-04-16 22:31:29:206
-1.55;-9.595;0.302;-1.365;-9.711;0.042;-0.186;0.116;0.26;-0.158;0.853;-0.031;-1.0;-4.8;29.4;48.78;3046;2018-04-16 22:31:29:216
-1.55;-9.595;0.302;-1.365;-9.711;0.042;-0.186;0.116;0.26;-0.057;0.716;-0.042;-1.0;-4.8;29.4;48.78;3055;2018-04-16 22:31:29:225
-1.549;-9.641;-0.014;-1.353;-9.713;-0.029;-0.196;0.071;0.014;-0.044;0.626;-0.037;-0.7;-4.8;29.3;48.78;3066;2018-04-16 22:31:29:236
-1.52;-9.653;-0.104;-1.353;-9.713;-0.029;-0.196;0.071;0.014;-0.033;0.5;-0.034;-0.7;-4.8;29.3;48.78;3076;2018-04-16 22:31:29:246
-1.52;-9.653;-0.104;-1.348;-9.713;-0.049;-0.178;0.064;-0.058;-0.018;0.365;-0.032;-0.6;-4.9;29.3;48.78;3086;2018-04-16 22:31:29:256
-1.487;-9.615;-0.142;-1.348;-9.713;-0.049;-0.178;0.064;-0.058;-0.018;0.365;-0.032;-0.6;-4.9;29.3;48.78;3096;2018-04-16 22:31:29:266
-1.481;-9.598;-0.092;-1.343;-9.714;-0.058;-0.137;0.114;-0.051;-0.007;0.14;-0.024;-0.6;-4.8;29.2;48.78;3105;2018-04-16 22:31:29:275
-1.481;-9.598;-0.092;-1.343;-9.714;-0.058;-0.137;0.114;-0.051;-0.007;0.006;-0.018;-0.6;-4.8;29.2;48.78;3116;2018-04-16 22:31:29:286
-1.482;-9.652;-0.03;-1.342;-9.714;-0.059;-0.14;0.062;0.029;-0.006;-0.164;-0.011;-0.6;-4.8;29.2;48.78;3126;2018-04-16 22:31:29:296
-1.471;-9.693;0.043;-1.342;-9.714;-0.059;-0.14;0.062;0.029;0.005;-0.299;-0.011;-0.6;-4.8;29.2;48.78;3136;2018-04-16 22:31:29:306
-1.471;-9.693;0.043;-1.342;-9.714;-0.051;-0.136;0.023;0.109;0.022;-0.37;-0.013;-0.6;-4.8;29.3;48.78;3146;2018-04-16 22:31:29:316
-1.475;-9.675;0.132;-1.342;-9.714;-0.051;-0.136;0.023;0.109;0.055;-0.425;-0.016;-0.6;-4.8;29.3;48.78;3156;2018-04-16 22:31:29:326
-1.477;-9.598;0.174;-1.34;-9.715;-0.032;-0.121;0.099;0.186;0.079;-0.461;-0.021;-0.6;-4.8;29.3;48.78;3165;2018-04-16 22:31:29:335
-1.477;-9.598;0.174;-1.339;-9.715;-0.016;-0.14;0.121;0.189;0.114;-0.472;-0.029;-0.6;-4.8;29.3;48.78;3175;2018-04-16 22:31:29:345
-1.511;-9.556;0.181;-1.339;-9.715;-0.016;-0.14;0.121;0.189;0.139;-0.473;-0.035;-0.6;-4.8;29.4;48.78;3185;2018-04-16 22:31:29:355
-1.602;-9.59;0.127;-1.335;-9.715;0.025;-0.225;0.153;0.119;0.156;-0.465;-0.039;-0.6;-4.8;29.4;48.78;3195;2018-04-16 22:31:29:365
-1.602;-9.59;0.127;-1.335;-9.715;0.025;-0.225;0.153;0.119;0.175;-0.451;-0.039;-0.7;-4.9;29.3;48.78;3206;2018-04-16 22:31:29:376
-1.689;-9.659;0.043;-1.33;-9.716;0.071;-0.36;0.056;-0.027;0.187;-0.445;-0.039;-0.7;-4.9;29.3;48.78;3216;2018-04-16 22:31:29:386
-1.766;-9.683;-0.139;-1.33;-9.716;0.071;-0.36;0.056;-0.027;0.193;-0.431;-0.035;-0.7;-4.9;29.3;48.78;3226;2018-04-16 22:31:29:396
-1.766;-9.683;-0.139;-1.326;-9.716;0.118;-0.456;0.028;-0.313;0.188;-0.419;-0.029;-0.7;-4.9;29.3;48.78;3236;2018-04-16 22:31:29:406
-1.8;-9.675;-0.29;-1.326;-9.716;0.118;-0.456;0.028;-0.313;0.164;-0.385;-0.022;-0.8;-4.9;29.3;48.78;3246;2018-04-16 22:31:29:416
-1.765;-9.622;-0.408;-1.324;-9.716;0.153;-0.458;0.075;-0.528;0.116;-0.326;-0.016;-0.8;-4.9;29.3;48.78;3256;2018-04-16 22:31:29:426
-1.765;-9.622;-0.408;-1.324;-9.716;0.153;-0.458;0.075;-0.528;0.116;-0.326;-0.016;-0.8;-4.9;29.3;48.78;3266;2018-04-16 22:31:29:436
-1.688;-9.576;-0.417;-1.326;-9.715;0.163;-0.362;0.14;-0.58;0.017;-0.198;-0.009;-0.8;-4.9;29.3;48.78;3276;2018-04-16 22:31:29:446
-1.587;-9.566;-0.268;-1.326;-9.715;0.163;-0.362;0.14;-0.58;-0.083;-0.037;-0.007;-0.8;-4.9;29.2;48.78;3286;2018-04-16 22:31:29:456
-1.587;-9.566;-0.268;-1.327;-9.715;0.144;-0.254;0.149;-0.389;-0.126;0.077;-0.011;-0.8;-4.9;29.2;51.3;3296;2018-04-16 22:31:29:466
-1.561;-9.615;-0.103;-1.327;-9.715;0.144;-0.254;0.149;-0.389;-0.154;0.188;-0.016;-0.9;-4.9;29.2;51.3;3306;2018-04-16 22:31:29:476
-1.532;-9.62;0.05;-1.326;-9.716;0.107;-0.217;0.108;-0.086;-0.169;0.287;-0.022;-0.9;-4.9;29.2;51.3;3316;2018-04-16 22:31:29:486
-1.532;-9.62;0.05;-1.326;-9.716;0.107;-0.217;0.108;-0.086;-0.167;0.378;-0.033;-0.9;-5.0;29.1;51.3;3326;2018-04-16 22:31:29:496
-1.52;-9.615;0.129;-1.323;-9.717;0.064;-0.198;0.102;0.065;-0.161;0.446;-0.043;-0.9;-5.0;29.1;51.3;3336;2018-04-16 22:31:29:506
-1.533;-9.658;0.101;-1.323;-9.717;0.064;-0.198;0.102;0.065;-0.144;0.489;-0.044;-0.9;-5.0;29.1;51.3;3346;2018-04-16 22:31:29:516
-1.533;-9.658;0.101;-1.316;-9.718;0.024;-0.203;0.05;0.063;-0.112;0.49;-0.043;-0.9;-5.0;29.1;51.3;3356;2018-04-16 22:31:29:526
-1.48;-9.619;0.044;-1.316;-9.718;0.024;-0.203;0.05;0.063;-0.079;0.462;-0.044;-0.8;-4.9;29.2;51.3;3366;2018-04-16 22:31:29:536
-1.469;-9.604;-0.007;-1.309;-9.719;-0.003;-0.16;0.112;0.024;-0.05;0.412;-0.05;-0.8;-4.9;29.2;51.3;3376;2018-04-16 22:31:29:546
-1.469;-9.604;-0.007;-1.309;-9.719;-0.003;-0.16;0.112;0.024;-0.031;0.354;-0.048;-0.8;-4.9;29.1;51.3;3385;2018-04-16 22:31:29:555
-1.441;-9.592;-0.095;-1.302;-9.72;-0.018;-0.14;0.127;-0.076;-0.023;0.292;-0.042;-0.8;-4.9;29.1;51.3;3395;2018-04-16 22:31:29:565
-1.395;-9.601;-0.181;-1.302;-9.72;-0.018;-0.14;0.127;-0.076;-0.035;0.215;-0.04;-0.7;-4.8;29.2;51.3;3405;2018-04-16 22:31:29:575
-1.395;-9.601;-0.181;-1.295;-9.721;-0.032;-0.082;0.097;-0.143;-0.054;0.087;-0.033;-0.7;-4.8;29.2;51.3;3416;2018-04-16 22:31:29:586
-1.352;-9.623;-0.215;-1.292;-9.721;-0.039;-0.059;0.098;-0.177;-0.066;-0.006;-0.035;-0.6;-4.8;29.3;51.3;3426;2018-04-16 22:31:29:596
-1.352;-9.623;-0.215;-1.292;-9.721;-0.039;-0.059;0.098;-0.177;-0.066;-0.006;-0.035;-0.6;-4.8;29.3;51.3;3436;2018-04-16 22:31:29:606
-1.387;-9.627;-0.196;-1.286;-9.722;-0.053;-0.114;0.096;-0.127;-0.075;-0.109;-0.04;-0.6;-4.8;29.2;51.3;3446;2018-04-16 22:31:29:616
-1.51;-9.618;-0.114;-1.286;-9.722;-0.053;-0.114;0.096;-0.127;-0.073;-0.209;-0.04;-0.6;-4.8;29.2;51.3;3456;2018-04-16 22:31:29:626
-1.51;-9.618;-0.114;-1.281;-9.722;-0.06;-0.252;0.104;-0.011;-0.061;-0.332;-0.034;-0.6;-4.8;29.2;51.3;3465;2018-04-16 22:31:29:635
-1.565;-9.634;-0.026;-1.281;-9.722;-0.06;-0.252;0.104;-0.011;-0.046;-0.391;-0.029;-0.6;-4.8;29.2;51.3;3476;2018-04-16 22:31:29:646
-1.603;-9.606;0.02;-1.279;-9.723;-0.057;-0.313;0.114;0.057;-0.022;-0.443;-0.023;-0.6;-4.8;29.2;51.3;3486;2018-04-16 22:31:29:656
-1.603;-9.606;0.02;-1.279;-9.723;-0.057;-0.313;0.114;0.057;-0.022;-0.443;-0.023;-0.5;-4.8;29.1;51.3;3496;2018-04-16 22:31:29:666
-1.664;-9.59;0.043;-1.28;-9.723;-0.044;-0.384;0.133;0.087;0.017;-0.464;-0.017;-0.5;-4.8;29.1;51.3;3505;2018-04-16 22:31:29:675
-1.69;-9.602;0.042;-1.281;-9.723;-0.033;-0.409;0.121;0.075;0.042;-0.454;-0.01;-0.5;-4.8;29.1;51.3;3516;2018-04-16 22:31:29:686
-1.69;-9.602;0.042;-1.281;-9.723;-0.033;-0.409;0.121;0.075;0.07;-0.404;-0.006;-0.5;-4.8;29.1;51.3;3526;2018-04-16 22:31:29:696
-1.652;-9.622;-0.056;-1.284;-9.722;-0.01;-0.368;0.1;-0.047;0.081;-0.352;-0.001;-0.5;-4.8;29.1;51.3;3536;2018-04-16 22:31:29:706
-1.572;-9.597;-0.183;-1.284;-9.722;-0.01;-0.368;0.1;-0.047;0.083;-0.282;0.004;-0.5;-4.8;29.1;51.3;3546;2018-04-16 22:31:29:716
-1.572;-9.597;-0.183;-1.287;-9.722;0.012;-0.255;0.121;-0.212;0.078;-0.209;0.004;-0.5;-5.0;29.1;51.3;3556;2018-04-16 22:31:29:726
-1.482;-9.627;-0.26;-1.287;-9.722;0.012;-0.255;0.121;-0.212;0.065;-0.127;0.0;-0.5;-5.0;29.1;51.3;3566;2018-04-16 22:31:29:736
-1.399;-9.621;-0.351;-1.289;-9.722;0.023;-0.146;0.084;-0.357;0.037;-0.043;-0.002;-0.5;-4.9;29.1;51.3;3575;2018-04-16 22:31:29:745
-1.399;-9.621;-0.351;-1.289;-9.722;0.023;-0.146;0.084;-0.357;0.004;0.043;-0.009;-0.5;-4.9;29.1;51.3;3585;2018-04-16 22:31:29:755
-1.358;-9.637;-0.345;-1.288;-9.722;0.019;-0.07;0.085;-0.363;-0.031;0.125;-0.015;-0.5;-5.0;29.2;51.3;3596;2018-04-16 22:31:29:766
-1.397;-9.634;-0.267;-1.288;-9.722;0.019;-0.07;0.085;-0.363;-0.066;0.194;-0.021;-0.5;-5.0;29.2;51.3;3606;2018-04-16 22:31:29:776
-1.397;-9.634;-0.267;-1.285;-9.722;-0.002;-0.136;0.094;-0.22;-0.066;0.194;-0.021;-0.5;-5.0;29.2;52.03;3616;2018-04-16 22:31:29:786
-1.471;-9.615;-0.136;-1.285;-9.722;-0.002;-0.136;0.094;-0.22;-0.092;0.271;-0.027;-0.5;-5.0;29.2;52.03;3626;2018-04-16 22:31:29:796
-1.544;-9.596;-0.048;-1.282;-9.722;-0.028;-0.237;0.123;-0.043;-0.092;0.303;-0.029;-0.5;-5.0;29.1;52.03;3636;2018-04-16 22:31:29:806
-1.575;-9.583;-0.016;-1.281;-9.723;-0.039;-0.282;0.119;0.017;-0.082;0.318;-0.029;-0.5;-5.1;29.2;52.03;3646;2018-04-16 22:31:29:816
-1.575;-9.583;-0.016;-1.281;-9.723;-0.039;-0.282;0.119;0.017;-0.062;0.32;-0.027;-0.5;-5.1;29.2;52.03;3656;2018-04-16 22:31:29:826
-1.578;-9.606;-0.011;-1.278;-9.723;-0.057;-0.299;0.117;0.046;-0.034;0.299;-0.02;-0.5;-5.1;29.2;52.03;3666;2018-04-16 22:31:29:836
-1.578;-9.606;-0.011;-1.278;-9.723;-0.057;-0.299;0.117;0.046;-0.034;0.299;-0.02;-0.5;-5.1;29.2;52.03;3677;2018-04-16 22:31:29:847
-1.547;-9.612;-0.035;-1.278;-9.723;-0.063;-0.269;0.111;0.029;-0.024;0.287;-0.02;-0.4;-5.2;29.2;52.03;3686;2018-04-16 22:31:29:856
-1.502;-9.62;-0.102;-1.277;-9.723;-0.071;-0.225;0.103;-0.031;-0.002;0.21;-0.012;-0.4;-5.1;29.3;52.03;3697;2018-04-16 22:31:29:867
-1.489;-9.596;-0.117;-1.277;-9.723;-0.072;-0.212;0.127;-0.045;0.005;0.158;-0.011;-0.4;-5.2;29.2;52.03;3709;2018-04-16 22:31:29:879
-1.489;-9.596;-0.117;-1.277;-9.723;-0.072;-0.212;0.127;-0.045;0.005;0.158;-0.011;-0.4;-5.2;29.2;52.03;3717;2018-04-16 22:31:29:887
-1.478;-9.628;-0.128;-1.277;-9.723;-0.074;-0.202;0.095;-0.054;0.01;0.039;-0.01;-0.4;-5.2;29.1;52.03;3726;2018-04-16 22:31:29:896
-1.504;-9.646;-0.096;-1.277;-9.723;-0.074;-0.202;0.095;-0.054;0.023;-0.066;-0.011;-0.4;-5.2;29.1;52.03;3735;2018-04-16 22:31:29:905
-1.504;-9.646;-0.096;-1.277;-9.723;-0.068;-0.224;0.08;-0.002;0.034;-0.1;-0.011;-0.3;-5.3;29.2;52.03;3746;2018-04-16 22:31:29:916
-1.513;-9.623;-0.062;-1.277;-9.723;-0.068;-0.224;0.08;-0.002;0.038;-0.119;-0.015;-0.3;-5.3;29.2;52.03;3756;2018-04-16 22:31:29:926
-1.528;-9.586;-0.062;-1.278;-9.723;-0.058;-0.228;0.112;0.001;0.045;-0.125;-0.015;-0.3;-5.3;29.2;52.03;3766;2018-04-16 22:31:29:936
-1.528;-9.586;-0.062;-1.278;-9.723;-0.058;-0.228;0.112;0.001;0.049;-0.121;-0.012;-0.3;-5.3;29.2;52.03;3776;2018-04-16 22:31:29:946
-1.549;-9.59;-0.084;-1.279;-9.723;-0.046;-0.27;0.133;-0.038;0.053;-0.108;-0.01;-0.3;-5.3;29.2;52.03;3786;2018-04-16 22:31:29:956
-1.557;-9.606;-0.13;-1.279;-9.723;-0.046;-0.27;0.133;-0.038;0.057;-0.094;-0.007;-0.3;-5.3;29.2;52.03;3796;2018-04-16 22:31:29:966
-1.557;-9.606;-0.13;-1.281;-9.723;-0.033;-0.269;0.095;-0.112;0.062;-0.077;-0.007;-0.3;-5.3;29.2;52.03;3806;2018-04-16 22:31:29:976
-1.55;-9.631;-0.193;-1.281;-9.723;-0.033;-0.269;0.095;-0.112;0.054;-0.051;-0.011;-0.3;-5.3;29.2;52.03;3816;2018-04-16 22:31:29:986
-1.601;-9.656;-0.25;-1.282;-9.722;-0.024;-0.3;0.065;-0.199;0.045;-0.021;-0.012;-0.3;-5.3;29.3;52.03;3826;2018-04-16 22:31:29:996
-1.601;-9.656;-0.25;-1.283;-9.722;-0.021;-0.3;0.065;-0.199;0.045;-0.021;-0.012;-0.3;-5.3;29.3;52.03;3836;2018-04-16 22:31:30:006
-1.611;-9.626;-0.277;-1.283;-9.722;-0.021;-0.327;0.096;-0.255;0.018;0.018;-0.005;-0.3;-5.3;29.3;52.03;3846;2018-04-16 22:31:30:016
-1.584;-9.576;-0.277;-1.287;-9.722;-0.024;-0.327;0.096;-0.255;0.0;0.044;-0.002;-0.3;-5.3;29.3;52.03;3856;2018-04-16 22:31:30:026
-1.584;-9.576;-0.277;-1.287;-9.722;-0.024;-0.301;0.145;-0.231;-0.027;0.073;0.004;-0.4;-5.2;29.4;52.03;3866;2018-04-16 22:31:30:036
-1.567;-9.561;-0.202;-1.292;-9.721;-0.035;-0.301;0.145;-0.231;-0.048;0.095;0.006;-0.4;-5.2;29.4;52.03;3875;2018-04-16 22:31:30:045
-1.51;-9.583;-0.126;-1.292;-9.721;-0.035;-0.227;0.131;-0.102;-0.061;0.112;0.009;-0.4;-5.3;29.3;52.03;3885;2018-04-16 22:31:30:055
-1.51;-9.583;-0.126;-1.297;-9.72;-0.051;-0.227;0.131;-0.102;-0.065;0.128;0.01;-0.4;-5.3;29.3;52.03;3895;2018-04-16 22:31:30:065
-1.456;-9.622;-0.049;-1.297;-9.72;-0.051;-0.157;0.098;0.009;-0.059;0.136;0.006;-0.4;-5.3;29.3;52.03;3905;2018-04-16 22:31:30:075
-1.425;-9.639;0.012;-1.299;-9.72;-0.065;-0.125;0.081;0.077;-0.049;0.139;-0.001;-0.4;-5.3;29.3;52.03;3915;2018-04-16 22:31:30:085
-1.383;-9.631;0.034;-1.299;-9.72;-0.065;-0.125;0.081;0.077;-0.039;0.143;-0.007;-0.5;-5.3;29.3;52.03;3926;2018-04-16 22:31:30:096
-1.383;-9.631;0.034;-1.299;-9.72;-0.075;-0.079;0.095;0.111;-0.023;0.14;-0.012;-0.5;-5.3;29.3;51.91;3935;2018-04-16 22:31:30:105
-1.383;-9.65;0.038;-1.299;-9.72;-0.075;-0.079;0.095;0.111;-0.007;0.132;-0.017;-0.5;-5.3;29.3;51.91;3946;2018-04-16 22:31:30:116
-1.404;-9.622;-0.013;-1.296;-9.72;-0.079;-0.108;0.098;0.066;0.007;0.116;-0.024;-0.5;-5.3;29.3;51.91;3956;2018-04-16 22:31:30:126
-1.451;-9.644;-0.06;-1.296;-9.72;-0.079;-0.108;0.098;0.066;0.018;0.092;-0.028;-0.6;-5.3;29.2;51.91;3965;2018-04-16 22:31:30:135
-1.451;-9.644;-0.06;-1.292;-9.721;-0.077;-0.156;0.058;0.001;0.027;0.039;-0.027;-0.6;-5.3;29.2;51.91;3976;2018-04-16 22:31:30:146
-1.498;-9.683;-0.119;-1.292;-9.721;-0.077;-0.156;0.058;0.001;0.027;0.039;-0.027;-0.6;-5.3;29.2;51.91;3986;2018-04-16 22:31:30:156
-1.48;-9.707;-0.16;-1.288;-9.721;-0.073;-0.191;0.014;-0.088;0.032;-0.007;-0.026;-0.6;-5.4;29.2;51.91;3996;2018-04-16 22:31:30:166
-1.452;-9.651;-0.212;-1.288;-9.721;-0.073;-0.191;0.014;-0.088;0.022;-0.09;-0.018;-0.6;-5.4;29.2;51.91;4006;2018-04-16 22:31:30:176
-1.452;-9.651;-0.212;-1.286;-9.722;-0.067;-0.169;0.068;-0.155;0.022;-0.09;-0.018;-0.7;-5.4;29.2;51.91;4016;2018-04-16 22:31:30:186
-1.437;-9.621;-0.225;-1.286;-9.722;-0.067;-0.169;0.068;-0.155;0.002;-0.142;-0.015;-0.7;-5.4;29.2;51.91;4026;2018-04-16 22:31:30:196
-1.437;-9.621;-0.225;-1.285;-9.722;-0.066;-0.148;0.114;-0.116;-0.012;-0.161;-0.015;-0.7;-5.3;29.3;51.91;4036;2018-04-16 22:31:30:206
-1.458;-9.6;-0.105;-1.285;-9.722;-0.066;-0.148;0.114;-0.116;-0.033;-0.155;-0.02;-0.7;-5.3;29.2;51.91;4046;2018-04-16 22:31:30:216
-1.458;-9.6;-0.105;-1.284;-9.722;-0.069;-0.216;0.128;0.041;-0.033;-0.155;-0.02;-0.7;-5.3;29.2;51.91;4056;2018-04-16 22:31:30:226
-1.565;-9.61;0.019;-1.284;-9.722;-0.069;-0.216;0.128;0.041;-0.038;-0.115;-0.026;-0.7;-5.3;29.2;51.91;4065;2018-04-16 22:31:30:235
-1.565;-9.61;0.019;-1.282;-9.722;-0.072;-0.308;0.104;0.115;-0.032;-0.075;-0.027;-0.7;-5.3;29.2;51.91;4076;2018-04-16 22:31:30:246
-1.626;-9.6;0.053;-1.282;-9.722;-0.072;-0.308;0.104;0.115;-0.016;-0.012;-0.026;-0.6;-5.3;29.3;51.91;4086;2018-04-16 22:31:30:256
-1.626;-9.6;0.053;-1.281;-9.722;-0.074;-0.372;0.107;0.116;-0.016;-0.012;-0.026;-0.6;-5.3;29.3;51.91;4096;2018-04-16 22:31:30:266
-1.671;-9.606;0.012;-1.281;-9.722;-0.074;-0.372;0.107;0.116;0.004;0.037;-0.02;-0.6;-5.4;29.4;51.91;4106;2018-04-16 22:31:30:276
-1.694;-9.596;-0.041;-1.283;-9.722;-0.073;-0.411;0.126;0.032;0.01;0.056;-0.016;-0.6;-5.4;29.4;51.91;4116;2018-04-16 22:31:30:286
-1.654;-9.568;-0.127;-1.283;-9.722;-0.073;-0.411;0.126;0.032;0.012;0.061;-0.011;-0.6;-5.4;29.4;51.91;4126;2018-04-16 22:31:30:296
-1.654;-9.568;-0.127;-1.287;-9.722;-0.073;-0.355;0.147;-0.071;0.012;0.061;-0.011;-0.6;-5.4;29.4;51.91;4136;2018-04-16 22:31:30:306
-1.618;-9.603;-0.19;-1.287;-9.722;-0.073;-0.355;0.147;-0.071;-0.001;0.049;-0.004;-0.6;-5.4;29.3;51.91;4145;2018-04-16 22:31:30:315
-1.618;-9.603;-0.19;-1.292;-9.721;-0.078;-0.294;0.107;-0.135;-0.016;0.024;0.001;-0.6;-5.4;29.3;51.91;4156;2018-04-16 22:31:30:326
-1.541;-9.631;-0.213;-1.292;-9.721;-0.078;-0.294;0.107;-0.135;-0.028;-0.024;0.005;-0.6;-5.5;29.2;51.91;4166;2018-04-16 22:31:30:336
-1.541;-9.631;-0.213;-1.297;-9.72;-0.085;-0.214;0.083;-0.1;-0.028;-0.024;0.005;-0.6;-5.5;29.2;51.91;4176;2018-04-16 22:31:30:346
-1.499;-9.649;-0.148;-1.297;-9.72;-0.085;-0.214;0.083;-0.1;-0.027;-0.081;0.006;-0.6;-5.5;29.3;51.91;4186;2018-04-16 22:31:30:356
-1.499;-9.649;-0.148;-1.301;-9.72;-0.088;-0.173;0.048;-0.016;-0.027;-0.081;0.006;-0.6;-5.5;29.3;51.91;4196;2018-04-16 22:31:30:366
-1.448;-9.689;-0.072;-1.301;-9.72;-0.088;-0.173;0.048;-0.016;-0.017;-0.111;0.011;-0.6;-5.4;29.2;51.91;4206;2018-04-16 22:31:30:376
-1.448;-9.689;-0.072;-1.304;-9.719;-0.088;-0.103;0.018;0.05;-0.01;-0.11;0.007;-0.6;-5.4;29.2;51.91;4215;2018-04-16 22:31:30:385
-1.367;-9.698;-0.019;-1.304;-9.719;-0.088;-0.103;0.018;0.05;0.01;-0.082;0.004;-0.6;-5.4;29.2;51.91;4226;2018-04-16 22:31:30:396
-1.306;-9.664;-0.059;-1.305;-9.719;-0.084;-0.014;0.054;0.049;0.016;-0.056;-0.006;-0.6;-5.4;29.2;51.91;4236;2018-04-16 22:31:30:406
-1.306;-9.664;-0.059;-1.305;-9.719;-0.084;-0.014;0.054;0.049;0.024;-0.022;-0.016;-0.6;-5.5;29.1;51.91;4246;2018-04-16 22:31:30:416
-1.337;-9.62;-0.099;-1.302;-9.719;-0.079;-0.035;0.1;-0.02;0.024;-0.022;-0.016;-0.6;-5.5;29.1;51.84;4255;2018-04-16 22:31:30:425
-1.438;-9.623;-0.208;-1.302;-9.719;-0.079;-0.035;0.1;-0.02;0.029;0.026;-0.028;-0.5;-5.5;29.2;51.84;4266;2018-04-16 22:31:30:436
-1.438;-9.623;-0.208;-1.298;-9.72;-0.076;-0.164;0.098;-0.153;0.029;0.044;-0.033;-0.5;-5.5;29.2;51.84;4276;2018-04-16 22:31:30:446
-1.523;-9.607;-0.266;-1.298;-9.72;-0.076;-0.164;0.098;-0.153;0.022;0.049;-0.034;-0.5;-5.5;29.2;51.84;4286;2018-04-16 22:31:30:456
-1.571;-9.608;-0.273;-1.294;-9.721;-0.075;-0.276;0.113;-0.198;0.022;0.049;-0.034;-0.5;-5.5;29.2;51.84;4296;2018-04-16 22:31:30:466
-1.555;-9.601;-0.256;-1.294;-9.721;-0.075;-0.276;0.113;-0.198;0.001;0.043;-0.028;-0.5;-5.5;29.1;51.84;4306;2018-04-16 22:31:30:476
-1.555;-9.601;-0.256;-1.293;-9.721;-0.08;-0.236;0.137;-0.175;-0.012;0.045;-0.02;-0.5;-5.5;29.1;51.84;4316;2018-04-16 22:31:30:486
-1.555;-9.601;-0.256;-1.293;-9.721;-0.08;-0.236;0.137;-0.175;-0.012;0.045;-0.02;-0.5;-5.5;29.1;51.84;4326;2018-04-16 22:31:30:496
-1.454;-9.582;-0.202;-1.293;-9.721;-0.084;-0.162;0.139;-0.118;-0.031;0.051;-0.016;-0.5;-5.5;29.1;51.84;4336;2018-04-16 22:31:30:506
-1.356;-9.591;-0.08;-1.293;-9.721;-0.084;-0.162;0.139;-0.118;-0.046;0.073;-0.016;-0.4;-5.5;29.0;51.84;4346;2018-04-16 22:31:30:516
-1.356;-9.591;-0.08;-1.289;-9.721;-0.1;-0.062;0.121;0.031;-0.043;0.086;-0.023;-0.4;-5.5;29.0;51.84;4356;2018-04-16 22:31:30:526
-1.377;-9.608;-0.026;-1.289;-9.721;-0.1;-0.062;0.121;0.031;-0.031;0.092;-0.029;-0.4;-5.5;28.9;51.84;4366;2018-04-16 22:31:30:536
-1.377;-9.608;-0.026;-1.285;-9.722;-0.108;-0.153;0.115;0.081;-0.031;0.092;-0.029;-0.4;-5.5;28.9;51.84;4376;2018-04-16 22:31:30:546
-1.49;-9.596;-0.01;-1.285;-9.722;-0.108;-0.153;0.115;0.081;-0.011;0.079;-0.035;-0.4;-5.4;29.0;51.84;4386;2018-04-16 22:31:30:556
-1.49;-9.596;-0.01;-1.28;-9.722;-0.109;-0.257;0.1;0.078;0.001;0.065;-0.038;-0.4;-5.4;29.0;51.84;4396;2018-04-16 22:31:30:566
-1.568;-9.618;-0.056;-1.28;-9.722;-0.109;-0.257;0.1;0.078;0.011;0.048;-0.038;-0.5;-5.4;28.8;51.84;4406;2018-04-16 22:31:30:576
-1.586;-9.626;-0.124;-1.277;-9.723;-0.107;-0.3;0.106;0.014;0.016;0.022;-0.033;-0.5;-5.4;28.8;51.84;4416;2018-04-16 22:31:30:586
-1.586;-9.626;-0.124;-1.277;-9.723;-0.107;-0.3;0.106;0.014;0.016;-0.004;-0.031;-0.5;-5.4;28.9;51.84;4426;2018-04-16 22:31:30:596
-1.567;-9.623;-0.162;-1.276;-9.723;-0.105;-0.291;0.099;-0.057;0.013;-0.033;-0.024;-0.5;-5.4;28.9;51.84;4436;2018-04-16 22:31:30:606
-1.531;-9.627;-0.188;-1.276;-9.723;-0.105;-0.256;0.096;-0.083;0.002;-0.065;-0.021;-0.5;-5.4;28.8;51.84;4446;2018-04-16 22:31:30:616
-1.531;-9.627;-0.188;-1.276;-9.723;-0.105;-0.256;0.096;-0.083;0.002;-0.065;-0.021;-0.5;-5.4;28.8;51.84;4456;2018-04-16 22:31:30:626
-1.484;-9.633;-0.175;-1.275;-9.723;-0.104;-0.209;0.09;-0.071;-0.009;-0.125;-0.015;-0.5;-5.4;28.8;51.84;4465;2018-04-16 22:31:30:635
-1.5;-9.62;-0.13;-1.275;-9.723;-0.104;-0.209;0.09;-0.071;-0.011;-0.143;-0.016;-0.5;-5.4;28.8;51.84;4476;2018-04-16 22:31:30:646
-1.5;-9.62;-0.13;-1.275;-9.723;-0.103;-0.233;0.107;-0.019;-0.013;-0.147;-0.017;-0.5;-5.4;28.8;51.84;4486;2018-04-16 22:31:30:656
-1.511;-9.615;-0.087;-1.275;-9.723;-0.103;-0.233;0.107;-0.019;-0.015;-0.137;-0.016;-0.4;-5.4;28.8;51.84;4496;2018-04-16 22:31:30:666
-1.522;-9.637;-0.029;-1.274;-9.723;-0.103;-0.255;0.109;0.048;-0.015;-0.114;-0.02;-0.4;-5.4;28.8;51.84;4506;2018-04-16 22:31:30:676
-1.522;-9.637;-0.029;-1.274;-9.723;-0.103;-0.255;0.109;0.048;-0.013;-0.075;-0.023;-0.4;-5.5;28.8;51.84;4516;2018-04-16 22:31:30:686
-1.544;-9.679;-0.016;-1.272;-9.723;-0.103;-0.272;0.045;0.088;-0.013;-0.034;-0.022;-0.4;-5.5;28.8;51.84;4526;2018-04-16 22:31:30:696
-1.507;-9.67;-0.063;-1.271;-9.723;-0.105;-0.236;0.053;0.041;-0.012;0.01;-0.026;-0.4;-5.4;28.7;51.84;4536;2018-04-16 22:31:30:706
-1.502;-9.656;-0.092;-1.271;-9.723;-0.105;-0.236;0.053;0.041;-0.006;0.078;-0.033;-0.4;-5.4;28.7;51.84;4546;2018-04-16 22:31:30:716
-1.502;-9.656;-0.092;-1.267;-9.724;-0.107;-0.235;0.06;0.003;-0.007;0.103;-0.038;-0.4;-5.4;28.8;51.84;4555;2018-04-16 22:31:30:725
-1.517;-9.643;-0.13;-1.267;-9.724;-0.107;-0.235;0.06;0.003;-0.012;0.123;-0.043;-0.4;-5.4;28.8;51.84;4566;2018-04-16 22:31:30:736
-1.517;-9.643;-0.13;-1.262;-9.724;-0.113;-0.275;0.101;-0.036;-0.012;0.123;-0.043;-0.4;-5.4;28.9;51.84;4576;2018-04-16 22:31:30:746
-1.551;-9.592;-0.154;-1.262;-9.724;-0.113;-0.275;0.101;-0.036;-0.027;0.138;-0.037;-0.4;-5.4;28.9;51.84;4586;2018-04-16 22:31:30:756
-1.554;-9.592;-0.152;-1.258;-9.725;-0.122;-0.296;0.133;-0.03;-0.032;0.134;-0.034;-0.4;-5.4;28.9;52.21;4596;2018-04-16 22:31:30:766
-1.554;-9.592;-0.152;-1.258;-9.725;-0.122;-0.296;0.133;-0.03;-0.035;0.121;-0.027;-0.4;-5.4;28.9;52.21;4606;2018-04-16 22:31:30:776
-1.531;-9.621;-0.14;-1.256;-9.725;-0.132;-0.266;0.102;0.004;-0.031;0.103;-0.021;-0.3;-5.4;28.9;52.21;4616;2018-04-16 22:31:30:786
-1.489;-9.602;-0.115;-1.256;-9.725;-0.132;-0.266;0.102;0.004;-0.021;0.068;-0.011;-0.4;-5.5;29.1;52.21;4626;2018-04-16 22:31:30:796
-1.392;-9.596;-0.098;-1.255;-9.725;-0.138;-0.168;0.141;0.018;-0.012;0.043;-0.006;-0.4;-5.5;29.1;52.21;4636;2018-04-16 22:31:30:806
-1.392;-9.596;-0.098;-1.255;-9.725;-0.138;-0.168;0.141;0.018;-0.011;0.021;-0.004;-0.4;-5.5;29.1;52.21;4646;2018-04-16 22:31:30:816
-1.34;-9.577;-0.115;-1.256;-9.725;-0.139;-0.084;0.148;0.025;-0.001;0.004;-0.002;-0.4;-5.5;29.1;52.21;4656;2018-04-16 22:31:30:826
-1.34;-9.577;-0.115;-1.256;-9.725;-0.139;-0.084;0.148;0.025;-0.001;0.004;-0.002;-0.4;-5.6;29.2;52.21;4666;2018-04-16 22:31:30:836
-1.286;-9.606;-0.115;-1.256;-9.725;-0.138;-0.029;0.119;0.023;0.006;-0.018;-0.001;-0.4;-5.6;29.2;52.21;4676;2018-04-16 22:31:30:846
-1.247;-9.639;-0.135;-1.256;-9.725;-0.138;-0.029;0.119;0.023;0.009;-0.039;-0.005;-0.4;-5.6;29.0;52.21;4686;2018-04-16 22:31:30:856
-1.247;-9.639;-0.135;-1.255;-9.725;-0.135;0.001;0.069;0.003;0.009;-0.039;-0.005;-0.4;-5.6;29.0;52.21;4696;2018-04-16 22:31:30:866
-1.247;-9.65;-0.159;-1.255;-9.725;-0.135;0.001;0.069;0.003;0.012;-0.055;-0.015;-0.3;-5.6;29.1;52.21;4705;2018-04-16 22:31:30:875
-1.282;-9.669;-0.204;-1.252;-9.725;-0.132;-0.006;0.065;-0.037;0.011;-0.065;-0.018;-0.3;-5.6;29.1;52.21;4716;2018-04-16 22:31:30:886
-1.282;-9.669;-0.204;-1.252;-9.725;-0.132;-0.006;0.065;-0.037;0.009;-0.078;-0.022;-0.3;-5.6;29.1;52.21;4726;2018-04-16 22:31:30:896
-1.344;-9.638;-0.205;-1.249;-9.726;-0.129;-0.096;0.088;-0.075;0.009;-0.09;-0.023;-0.3;-5.6;29.1;52.21;4736;2018-04-16 22:31:30:906
-1.393;-9.652;-0.214;-1.249;-9.726;-0.129;-0.096;0.088;-0.075;0.002;-0.1;-0.023;-0.3;-5.5;29.1;52.21;4746;2018-04-16 22:31:30:916
-1.393;-9.652;-0.214;-1.246;-9.726;-0.128;-0.163;0.077;-0.081;-0.006;-0.106;-0.027;-0.3;-5.5;29.1;52.21;4756;2018-04-16 22:31:30:926
-1.456;-9.65;-0.206;-1.246;-9.726;-0.128;-0.163;0.077;-0.081;-0.013;-0.105;-0.027;-0.3;-5.6;29.2;52.21;4766;2018-04-16 22:31:30:936
-1.5;-9.644;-0.209;-1.243;-9.727;-0.131;-0.241;0.082;-0.069;-0.027;-0.108;-0.027;-0.3;-5.6;29.2;52.21;4776;2018-04-16 22:31:30:946
-1.5;-9.644;-0.209;-1.243;-9.727;-0.131;-0.241;0.082;-0.069;-0.038;-0.11;-0.022;-0.2;-5.5;29.2;52.21;4786;2018-04-16 22:31:30:956
-1.495;-9.626;-0.189;-1.241;-9.727;-0.136;-0.254;0.101;-0.053;-0.046;-0.108;-0.02;-0.2;-5.5;29.2;52.21;4796;2018-04-16 22:31:30:966
-1.499;-9.628;-0.172;-1.241;-9.727;-0.136;-0.258;0.098;-0.032;-0.059;-0.105;-0.018;-0.2;-5.5;29.3;52.21;4807;2018-04-16 22:31:30:977
-1.522;-9.606;-0.144;-1.241;-9.727;-0.145;-0.289;0.127;0.025;-0.075;-0.099;-0.017;-0.2;-5.5;29.3;52.21;4816;2018-04-16 22:31:30:986
-1.522;-9.606;-0.144;-1.241;-9.727;-0.145;-0.289;0.127;0.025;-0.075;-0.099;-0.017;-0.2;-5.5;29.3;52.21;4826;2018-04-16 22:31:30:996
-1.543;-9.585;-0.095;-1.241;-9.727;-0.158;-0.289;0.127;0.025;-0.081;-0.095;-0.018;-0.2;-5.5;29.3;52.21;4836;2018-04-16 22:31:31:006
-1.554;-9.573;-0.042;-1.241;-9.727;-0.158;-0.31;0.16;0.107;-0.075;-0.079;-0.012;-0.2;-5.6;29.5;52.21;4845;2018-04-16 22:31:31:015
-1.554;-9.573;-0.042;-1.242;-9.726;-0.169;-0.31;0.16;0.107;-0.07;-0.065;-0.015;-0.2;-5.6;29.5;52.21;4856;2018-04-16 22:31:31:026
-1.575;-9.608;0.002;-1.242;-9.726;-0.169;-0.333;0.118;0.176;-0.06;-0.054;-0.016;-0.2;-5.6;29.5;52.21;4866;2018-04-16 22:31:31:036
-1.575;-9.608;0.002;-1.242;-9.726;-0.178;-0.333;0.118;0.176;-0.06;-0.054;-0.016;-0.2;-5.6;29.5;52.21;4876;2018-04-16 22:31:31:046
-1.585;-9.615;0.023;-1.242;-9.726;-0.178;-0.342;0.111;0.204;-0.044;-0.034;-0.015;-0.1;-5.6;29.5;52.21;4886;2018-04-16 22:31:31:056
-1.585;-9.615;0.023;-1.243;-9.726;-0.183;-0.342;0.111;0.204;-0.031;-0.021;-0.012;-0.1;-5.6;29.5;52.21;4896;2018-04-16 22:31:31:066
-1.566;-9.585;0.002;-1.244;-9.726;-0.183;-0.321;0.14;0.186;-0.02;-0.016;-0.013;-0.1;-5.6;29.6;52.21;4906;2018-04-16 22:31:31:076
-1.566;-9.585;0.002;-1.244;-9.726;-0.183;-0.321;0.14;0.186;-0.005;-0.012;-0.01;-0.1;-5.6;29.6;51.98;4917;2018-04-16 22:31:31:087
-1.555;-9.543;-0.029;-1.248;-9.725;-0.181;-0.307;0.182;0.152;-0.005;-0.012;-0.01;-0.1;-5.6;29.6;51.98;4926;2018-04-16 22:31:31:096
-1.555;-9.543;-0.029;-1.248;-9.725;-0.181;-0.307;0.182;0.152;0.011;-0.013;-0.002;-0.1;-5.6;29.6;51.98;4936;2018-04-16 22:31:31:106
-1.45;-9.572;-0.111;-1.252;-9.725;-0.177;-0.198;0.153;0.065;0.022;-0.012;0.002;0.0;-5.6;29.5;51.98;4946;2018-04-16 22:31:31:116
-1.369;-9.578;-0.158;-1.252;-9.725;-0.177;-0.198;0.153;0.065;0.024;-0.012;0.006;0.0;-5.6;29.5;51.98;4955;2018-04-16 22:31:31:125
-1.369;-9.578;-0.158;-1.255;-9.725;-0.171;-0.117;0.157;0.008;0.027;-0.013;0.002;0.0;-5.6;29.7;51.98;4966;2018-04-16 22:31:31:136
-1.385;-9.576;-0.152;-1.255;-9.725;-0.171;-0.117;0.157;0.008;0.024;-0.01;0.002;0.0;-5.6;29.7;51.98;4976;2018-04-16 22:31:31:146
-1.429;-9.603;-0.12;-1.257;-9.724;-0.166;-0.144;0.122;0.029;0.022;0.001;-0.002;0.0;-5.6;29.8;51.98;4986;2018-04-16 22:31:31:156
-1.429;-9.603;-0.12;-1.257;-9.724;-0.166;-0.144;0.122;0.029;0.031;0.018;-0.005;0.0;-5.6;29.8;51.98;4996;2018-04-16 22:31:31:166
-1.462;-9.629;-0.084;-1.259;-9.724;-0.159;-0.203;0.095;0.076;0.043;0.038;-0.007;0.1;-5.6;29.8;51.98;5006;2018-04-16 22:31:31:176
-1.469;-9.635;-0.083;-1.26;-9.724;-0.154;-0.209;0.089;0.072;0.043;0.038;-0.007;0.1;-5.6;29.8;51.98;5016;2018-04-16 22:31:31:186
-1.451;-9.604;-0.119;-1.26;-9.724;-0.154;-0.209;0.089;0.072;0.064;0.081;-0.006;0.1;-5.6;29.8;51.98;5026;2018-04-16 22:31:31:196
-1.451;-9.604;-0.119;-1.26;-9.724;-0.144;-0.174;0.128;0.01;0.067;0.109;-0.01;0.1;-5.6;29.8;51.98;5036;2018-04-16 22:31:31:206
-1.432;-9.602;-0.176;-1.26;-9.724;-0.14;-0.172;0.122;-0.036;0.067;0.139;-0.013;0.1;-5.7;29.8;51.98;5046;2018-04-16 22:31:31:216
-1.432;-9.602;-0.176;-1.26;-9.724;-0.14;-0.172;0.122;-0.036;0.067;0.139;-0.013;0.1;-5.7;29.8;51.98;5056;2018-04-16 22:31:31:226
-1.392;-9.64;-0.22;-1.258;-9.725;-0.134;-0.143;0.069;-0.084;0.056;0.173;-0.015;0.1;-5.7;29.8;51.98;5066;2018-04-16 22:31:31:236
-1.375;-9.656;-0.232;-1.258;-9.725;-0.134;-0.143;0.069;-0.084;0.04;0.197;-0.018;0.1;-5.7;29.7;51.98;5076;2018-04-16 22:31:31:246
-1.375;-9.656;-0.232;-1.255;-9.725;-0.132;-0.118;0.068;-0.097;0.038;0.199;-0.018;0.1;-5.7;29.7;51.98;5086;2018-04-16 22:31:31:256
-1.378;-9.625;-0.219;-1.255;-9.725;-0.132;-0.118;0.068;-0.097;0.028;0.182;-0.021;0.2;-5.7;29.7;51.98;5095;2018-04-16 22:31:31:265
-1.384;-9.633;-0.225;-1.252;-9.725;-0.131;-0.132;0.092;-0.094;0.028;0.182;-0.021;0.2;-5.6;29.7;51.98;5106;2018-04-16 22:31:31:276
-1.384;-9.633;-0.225;-1.252;-9.725;-0.131;-0.132;0.092;-0.094;0.028;0.182;-0.021;0.2;-5.6;29.7;51.98;5115;2018-04-16 22:31:31:285
-1.422;-9.638;-0.199;-1.25;-9.726;-0.133;-0.172;0.088;-0.066;0.013;0.159;-0.016;0.2;-5.6;29.5;51.98;5126;2018-04-16 22:31:31:296
-1.422;-9.638;-0.199;-1.25;-9.726;-0.133;-0.172;0.088;-0.066;0.007;0.119;-0.01;0.2;-5.6;29.5;51.98;5136;2018-04-16 22:31:31:306
-1.414;-9.615;-0.163;-1.249;-9.726;-0.135;-0.164;0.111;-0.028;0.007;0.119;-0.01;0.1;-5.6;29.5;51.98;5146;2018-04-16 22:31:31:316
-1.414;-9.615;-0.163;-1.249;-9.726;-0.135;-0.164;0.111;-0.028;0.006;0.086;-0.009;0.1;-5.6;29.5;51.98;5156;2018-04-16 22:31:31:326
-1.348;-9.655;-0.13;-1.249;-9.726;-0.136;-0.099;0.071;0.005;0.001;0.061;-0.011;0.1;-5.6;29.5;51.98;5166;2018-04-16 22:31:31:336
-1.307;-9.658;-0.116;-1.249;-9.726;-0.136;-0.099;0.071;0.005;0.0;0.054;-0.013;0.1;-5.6;29.5;51.98;5176;2018-04-16 22:31:31:346
-1.307;-9.658;-0.116;-1.247;-9.726;-0.137;-0.051;0.054;0.034;0.0;0.054;-0.013;0.1;-5.5;29.5;51.98;5185;2018-04-16 22:31:31:355
-1.281;-9.656;-0.097;-1.247;-9.726;-0.137;-0.051;0.054;0.034;0.0;0.033;-0.012;0.1;-5.5;29.5;51.98;5196;2018-04-16 22:31:31:366
-1.271;-9.637;-0.123;-1.245;-9.726;-0.137;-0.027;0.09;0.014;0.002;0.015;-0.018;0.1;-5.4;29.5;51.98;5206;2018-04-16 22:31:31:376
-1.329;-9.67;-0.13;-1.245;-9.726;-0.137;-0.027;0.09;0.014;0.009;-0.007;-0.021;0.0;-5.4;29.4;51.98;5216;2018-04-16 22:31:31:386
-1.329;-9.67;-0.13;-1.242;-9.727;-0.134;-0.115;0.061;0.006;0.009;-0.007;-0.021;0.0;-5.4;29.4;51.98;5226;2018-04-16 22:31:31:396
-1.383;-9.671;-0.139;-1.242;-9.727;-0.134;-0.115;0.061;0.006;0.018;-0.044;-0.023;0.0;-5.4;29.4;51.08;5235;2018-04-16 22:31:31:405
-1.416;-9.681;-0.17;-1.239;-9.727;-0.13;-0.166;0.055;-0.031;0.011;-0.051;-0.021;0.0;-5.4;29.4;51.08;5246;2018-04-16 22:31:31:416
-1.416;-9.681;-0.17;-1.239;-9.727;-0.13;-0.174;0.045;-0.045;0.011;-0.051;-0.021;0.0;-5.4;29.5;51.08;5256;2018-04-16 22:31:31:426
-1.397;-9.7;-0.195;-1.237;-9.727;-0.13;-0.174;0.045;-0.045;-0.01;-0.045;-0.023;0.0;-5.4;29.5;51.08;5265;2018-04-16 22:31:31:435
-1.409;-9.665;-0.193;-1.237;-9.727;-0.13;-0.17;0.049;-0.067;-0.021;-0.044;-0.024;0.0;-5.4;29.4;51.08;5276;2018-04-16 22:31:31:446
-1.409;-9.665;-0.193;-1.234;-9.728;-0.134;-0.17;0.049;-0.067;-0.029;-0.057;-0.029;0.0;-5.4;29.4;51.08;5286;2018-04-16 22:31:31:456
-1.47;-9.628;-0.215;-1.234;-9.728;-0.134;-0.238;0.1;-0.078;-0.032;-0.071;-0.032;-0.1;-5.4;29.4;51.08;5296;2018-04-16 22:31:31:466
-1.5;-9.589;-0.209;-1.231;-9.728;-0.139;-0.269;0.139;-0.07;-0.032;-0.071;-0.032;-0.1;-5.4;29.4;51.08;5306;2018-04-16 22:31:31:476
-1.5;-9.589;-0.209;-1.231;-9.728;-0.139;-0.269;0.139;-0.07;-0.009;-0.123;-0.022;-0.1;-5.4;29.4;51.08;5316;2018-04-16 22:31:31:486
-1.514;-9.626;-0.22;-1.23;-9.728;-0.134;-0.284;0.102;-0.086;0.034;-0.181;-0.015;-0.1;-5.4;29.5;51.08;5326;2018-04-16 22:31:31:496
-1.481;-9.665;-0.23;-1.23;-9.728;-0.134;-0.251;0.063;-0.107;0.079;-0.255;-0.016;-0.1;-5.4;29.5;51.08;5336;2018-04-16 22:31:31:506
-1.517;-9.703;-0.266;-1.23;-9.729;-0.108;-0.251;0.063;-0.107;0.137;-0.327;-0.016;-0.1;-5.4;29.5;51.08;5346;2018-04-16 22:31:31:516
-1.517;-9.703;-0.266;-1.23;-9.729;-0.108;-0.302;0.031;-0.198;0.137;-0.327;-0.016;0.0;-5.4;29.6;51.08;5356;2018-04-16 22:31:31:526
-1.561;-9.694;-0.304;-1.23;-9.729;-0.066;-0.302;0.031;-0.198;0.182;-0.392;-0.021;0.0;-5.4;29.6;51.08;5366;2018-04-16 22:31:31:536
-1.561;-9.694;-0.304;-1.23;-9.729;-0.066;-0.35;0.098;-0.276;0.15;-0.367;-0.015;0.0;-5.4;29.7;51.08;5376;2018-04-16 22:31:31:546
-1.585;-9.573;-0.302;-1.231;-9.729;-0.036;-0.35;0.098;-0.276;0.097;-0.307;-0.013;0.0;-5.4;29.6;51.08;5386;2018-04-16 22:31:31:556
-1.585;-9.573;-0.302;-1.231;-9.729;-0.036;-0.336;0.225;-0.22;0.032;-0.22;-0.013;0.0;-5.4;29.6;51.08;5396;2018-04-16 22:31:31:566
-1.551;-9.492;-0.174;-1.233;-9.729;-0.034;-0.336;0.225;-0.22;-0.072;-0.043;-0.002;0.0;-5.4;29.6;51.08;5406;2018-04-16 22:31:31:576
-1.505;-9.572;-0.059;-1.233;-9.729;-0.034;-0.307;0.192;-0.062;-0.077;0.013;-0.001;0.0;-5.4;29.6;51.08;5416;2018-04-16 22:31:31:586
-1.505;-9.572;-0.059;-1.236;-9.728;-0.048;-0.307;0.192;-0.062;-0.061;0.065;0.001;0.0;-5.4;29.7;51.08;5426;2018-04-16 22:31:31:596
-1.361;-9.631;0.024;-1.236;-9.728;-0.048;-0.124;0.097;0.079;-0.061;0.065;0.001;0.0;-5.4;29.7;51.08;5436;2018-04-16 22:31:31:606
-1.273;-9.606;0.043;-1.237;-9.728;-0.059;0.017;0.15;0.103;-0.044;0.112;0.005;0.1;-5.4;29.8;51.08;5446;2018-04-16 22:31:31:616
-1.273;-9.606;0.043;-1.237;-9.728;-0.059;0.017;0.15;0.103;-0.043;0.227;-0.032;0.1;-5.4;29.8;51.08;5456;2018-04-16 22:31:31:626
-1.196;-9.527;0.119;-1.23;-9.729;-0.071;0.035;0.202;0.19;-0.05;0.296;-0.039;0.1;-5.4;29.7;51.08;5465;2018-04-16 22:31:31:635
-1.186;-9.519;0.072;-1.23;-9.729;-0.071;0.035;0.202;0.19;-0.049;0.342;-0.037;0.1;-5.4;29.7;51.08;5476;2018-04-16 22:31:31:646
-1.186;-9.519;0.072;-1.222;-9.73;-0.087;0.058;0.236;0.13;-0.024;0.341;-0.043;0.1;-5.5;29.6;51.08;5486;2018-04-16 22:31:31:656
-1.165;-9.443;0.004;-1.222;-9.73;-0.087;0.058;0.236;0.13;-0.001;0.31;-0.061;0.1;-5.5;29.6;51.08;5496;2018-04-16 22:31:31:666
-1.246;-9.428;-0.007;-1.211;-9.731;-0.094;-0.035;0.303;0.087;-0.001;0.31;-0.061;0.2;-5.5;29.6;51.08;5506;2018-04-16 22:31:31:676
-1.246;-9.428;-0.007;-1.211;-9.731;-0.094;-0.035;0.303;0.087;0.005;0.261;-0.065;0.2;-5.5;29.6;51.08;5515;2018-04-16 22:31:31:685
-1.314;-9.416;-0.102;-1.2;-9.732;-0.1;-0.115;0.316;-0.002;0.002;0.186;-0.057;0.2;-5.5;29.6;51.08;5526;2018-04-16 22:31:31:696
-1.325;-9.56;-0.213;-1.2;-9.732;-0.1;-0.115;0.316;-0.002;0.002;0.186;-0.057;0.2;-5.5;29.6;51.08;5536;2018-04-16 22:31:31:706
-1.325;-9.56;-0.213;-1.19;-9.734;-0.098;-0.154;0.12;-0.127;0.044;0.005;-0.059;0.3;-5.5;29.6;51.08;5546;2018-04-16 22:31:31:716
-1.348;-9.725;-0.194;-1.19;-9.734;-0.098;-0.154;0.12;-0.127;0.083;-0.137;-0.062;0.3;-5.5;29.6;51.92;5556;2018-04-16 22:31:31:726
-1.284;-9.71;-0.132;-1.18;-9.735;-0.075;-0.134;0.0;-0.077;0.112;-0.252;-0.057;0.3;-5.6;29.6;51.92;5565;2018-04-16 22:31:31:735
-1.284;-9.71;-0.132;-1.18;-9.735;-0.075;-0.134;0.0;-0.077;0.143;-0.337;-0.05;0.3;-5.6;29.6;51.92;5576;2018-04-16 22:31:31:746
-1.161;-9.579;-0.104;-1.171;-9.736;-0.038;0.01;0.157;-0.066;0.165;-0.407;-0.055;0.3;-5.5;29.6;51.92;5586;2018-04-16 22:31:31:756
-1.11;-9.486;-0.127;-1.165;-9.737;-0.017;0.055;0.251;-0.11;0.158;-0.406;-0.065;0.3;-5.5;29.6;51.92;5596;2018-04-16 22:31:31:766
-1.136;-9.578;-0.287;-1.165;-9.737;-0.017;0.055;0.251;-0.11;0.154;-0.4;-0.082;0.3;-5.5;29.6;51.92;5606;2018-04-16 22:31:31:776
-1.136;-9.578;-0.287;-1.148;-9.739;0.02;0.05;0.153;-0.37;0.154;-0.4;-0.082;0.3;-5.5;29.6;51.92;5616;2018-04-16 22:31:31:786
-1.018;-9.568;-0.539;-1.148;-9.739;0.02;0.05;0.153;-0.37;0.183;-0.409;-0.089;0.4;-5.5;29.6;51.92;5626;2018-04-16 22:31:31:796
-1.018;-9.568;-0.539;-1.128;-9.741;0.06;0.15;0.26;-0.756;0.191;-0.403;-0.103;0.4;-5.5;29.6;51.92;5636;2018-04-16 22:31:31:806
-0.985;-9.511;-0.763;-1.128;-9.741;0.06;0.15;0.26;-0.756;0.191;-0.403;-0.103;0.4;-5.5;29.6;51.92;5646;2018-04-16 22:31:31:816
-1.201;-9.491;-0.881;-1.1;-9.744;0.085;-0.021;0.294;-0.955;0.125;-0.253;-0.153;0.4;-5.4;29.6;51.92;5656;2018-04-16 22:31:31:826
-1.201;-9.491;-0.881;-1.1;-9.744;0.085;-0.021;0.294;-0.955;0.049;-0.1;-0.175;0.4;-5.4;29.6;51.92;5666;2018-04-16 22:31:31:836
-1.344;-9.498;-0.977;-1.067;-9.748;0.076;-0.277;0.25;-1.053;-0.027;0.071;-0.186;0.4;-5.4;29.7;51.92;5676;2018-04-16 22:31:31:846
-1.399;-9.431;-0.982;-1.052;-9.75;0.061;-0.347;0.319;-1.043;-0.082;0.2;-0.191;0.4;-5.4;29.7;51.92;5686;2018-04-16 22:31:31:856
-1.399;-9.431;-0.982;-1.052;-9.75;0.061;-0.347;0.319;-1.043;-0.199;0.442;-0.198;0.4;-5.4;29.8;51.92;5696;2018-04-16 22:31:31:866
-1.732;-9.442;-0.528;-1.02;-9.753;0.007;-0.712;0.312;-0.535;-0.285;0.583;-0.183;0.4;-5.4;29.8;51.92;5706;2018-04-16 22:31:31:876
-1.895;-9.516;-0.29;-1.02;-9.753;0.007;-0.712;0.312;-0.535;-0.285;0.583;-0.183;0.4;-5.4;29.9;51.92;5716;2018-04-16 22:31:31:886
-1.85;-9.498;-0.207;-1.0;-9.755;-0.07;-0.894;0.226;-0.183;-0.327;0.672;-0.123;0.4;-5.4;29.9;51.92;5726;2018-04-16 22:31:31:896
-1.85;-9.498;-0.207;-1.0;-9.755;-0.07;-0.894;0.226;-0.183;-0.274;0.601;-0.088;0.4;-5.4;29.9;51.92;5736;2018-04-16 22:31:31:906
-1.779;-9.461;-0.007;-0.992;-9.755;-0.13;-0.787;0.295;0.122;-0.198;0.448;-0.064;0.4;-5.4;29.9;51.92;5746;2018-04-16 22:31:31:916
-1.779;-9.461;-0.007;-0.992;-9.755;-0.13;-0.787;0.295;0.122;-0.198;0.448;-0.064;0.4;-5.4;29.9;51.92;5756;2018-04-16 22:31:31:926
-1.768;-9.568;0.28;-0.992;-9.755;-0.167;-0.776;0.186;0.447;-0.154;0.368;-0.015;0.3;-5.3;30.0;51.92;5766;2018-04-16 22:31:31:936
-1.768;-9.568;0.28;-0.992;-9.755;-0.167;-0.776;0.186;0.447;-0.12;0.327;0.018;0.3;-5.3;30.0;51.92;5777;2018-04-16 22:31:31:947
-1.543;-9.504;0.371;-1.003;-9.753;-0.186;-0.541;0.25;0.558;-0.04;0.265;0.049;0.3;-5.3;30.0;51.92;5786;2018-04-16 22:31:31:956
-1.543;-9.504;0.371;-1.003;-9.753;-0.186;-0.541;0.25;0.558;-0.04;0.265;0.049;0.3;-5.3;30.0;51.92;5796;2018-04-16 22:31:31:966
-1.525;-9.584;0.413;-1.021;-9.752;-0.181;-0.504;0.168;0.594;0.061;0.204;0.086;0.2;-5.3;30.0;51.92;5806;2018-04-16 22:31:31:976
-1.525;-9.584;0.413;-1.021;-9.752;-0.181;-0.504;0.168;0.594;0.125;0.172;0.117;0.2;-5.3;30.0;51.92;5816;2018-04-16 22:31:31:986
-1.498;-9.316;0.321;-1.05;-9.749;-0.15;-0.448;0.433;0.471;0.202;0.149;0.151;0.2;-5.3;30.0;51.92;5826;2018-04-16 22:31:31:996
-1.615;-9.316;0.202;-1.071;-9.747;-0.127;-0.544;0.431;0.329;0.202;0.149;0.151;0.2;-5.3;30.0;51.92;5837;2018-04-16 22:31:32:007
-1.615;-9.316;0.202;-1.071;-9.747;-0.127;-0.544;0.431;0.329;0.222;0.143;0.186;0.2;-5.3;30.0;51.92;5846;2018-04-16 22:31:32:016
-1.604;-9.272;-0.181;-1.118;-9.742;-0.081;-0.486;0.471;-0.1;0.266;0.072;0.239;0.2;-5.3;30.0;51.92;5855;2018-04-16 22:31:32:025
-1.533;-9.428;-0.347;-1.118;-9.742;-0.081;-0.486;0.471;-0.1;0.318;-0.045;0.261;0.2;-5.3;30.0;51.92;5865;2018-04-16 22:31:32:035
-1.533;-9.428;-0.347;-1.175;-9.736;-0.015;-0.3;0.267;-0.369;0.367;-0.159;0.281;0.1;-5.3;30.0;51.92;5876;2018-04-16 22:31:32:046
-1.356;-9.566;-0.498;-1.175;-9.736;-0.015;-0.3;0.267;-0.369;0.4;-0.224;0.304;0.1;-5.3;30.0;51.92;5886;2018-04-16 22:31:32:056
-0.934;-9.78;-0.59;-1.236;-9.728;0.064;0.09;-0.045;-0.629;0.408;-0.231;0.32;0.1;-5.2;29.9;51.41;5896;2018-04-16 22:31:32:066
-0.934;-9.78;-0.59;-1.263;-9.724;0.098;0.504;-0.1;-0.7;0.396;-0.161;0.334;0.1;-5.2;29.9;51.41;5906;2018-04-16 22:31:32:076
-0.424;-9.823;-0.605;-1.263;-9.724;0.098;0.504;-0.1;-0.7;0.348;-0.013;0.321;0.0;-5.2;29.9;51.41;5917;2018-04-16 22:31:32:087
-0.062;-9.829;-0.424;-1.314;-9.717;0.15;1.135;-0.093;-0.653;0.236;0.316;0.274;0.0;-5.2;29.9;51.41;5926;2018-04-16 22:31:32:096
-0.062;-9.829;-0.424;-1.314;-9.717;0.15;1.135;-0.093;-0.653;0.172;0.641;0.221;0.0;-5.2;29.9;51.41;5936;2018-04-16 22:31:32:106
0.148;-9.92;-0.329;-1.35;-9.712;0.168;1.498;-0.209;-0.498;0.172;0.641;0.221;0.0;-5.2;29.9;51.41;5946;2018-04-16 22:31:32:116
0.148;-9.92;-0.329;-1.35;-9.712;0.168;1.498;-0.209;-0.498;0.183;0.787;0.191;0.0;-5.2;29.9;51.41;5956;2018-04-16 22:31:32:126
0.342;-9.877;-0.4;-1.364;-9.71;0.174;1.706;-0.167;-0.573;0.183;0.787;0.191;-0.1;-5.2;29.7;51.41;5966;2018-04-16 22:31:32:136
0.373;-10.388;-0.484;-1.364;-9.71;0.174;1.706;-0.167;-0.573;0.145;0.899;0.048;-0.2;-5.1;29.6;51.41;5976;2018-04-16 22:31:32:146
0.373;-10.388;-0.484;-1.375;-9.708;0.179;1.793;-0.684;-0.802;0.14;0.638;-0.005;-0.2;-5.1;29.6;51.41;5985;2018-04-16 22:31:32:155
0.407;-10.331;-0.931;-1.375;-9.708;0.179;1.793;-0.684;-0.802;0.145;0.242;-0.033;-0.4;-5.0;29.5;51.41;5996;2018-04-16 22:31:32:166
-0.121;-9.878;-1.041;-1.361;-9.71;0.194;1.545;-0.298;-1.266;0.145;0.242;-0.033;-0.4;-5.0;29.5;51.41;6006;2018-04-16 22:31:32:176
-0.121;-9.878;-1.041;-1.361;-9.71;0.194;1.545;-0.298;-1.266;0.123;-0.414;-0.081;-0.6;-4.9;29.4;51.41;6016;2018-04-16 22:31:32:186
-0.898;-9.601;-0.508;-1.338;-9.712;0.223;0.441;0.112;-0.731;0.092;-0.927;-0.029;-0.6;-4.9;29.4;51.41;6026;2018-04-16 22:31:32:196
-1.118;-9.274;0.168;-1.338;-9.712;0.223;0.441;0.112;-0.731;0.083;-1.069;0.005;-0.7;-4.9;29.4;51.41;6036;2018-04-16 22:31:32:206
-1.118;-9.274;0.168;-1.332;-9.712;0.267;0.136;0.451;0.061;0.092;-1.079;0.005;-0.7;-4.9;29.4;51.41;6046;2018-04-16 22:31:32:216
-1.435;-9.392;0.552;-1.332;-9.712;0.267;0.136;0.451;0.061;0.132;-1.004;0.013;-0.7;-4.8;29.3;51.41;6056;2018-04-16 22:31:32:226
-1.666;-9.585;0.537;-1.33;-9.711;0.322;-0.256;0.202;0.28;0.21;-0.883;0.034;-0.7;-4.8;29.3;51.41;6066;2018-04-16 22:31:32:236
-1.666;-9.585;0.537;-1.33;-9.711;0.322;-0.256;0.202;0.28;0.319;-0.746;0.059;-0.8;-4.7;29.3;51.41;6076;2018-04-16 22:31:32:246
-1.699;-9.786;0.25;-1.339;-9.706;0.402;-0.36;-0.08;-0.152;0.436;-0.616;0.07;-0.8;-4.7;29.3;51.41;6085;2018-04-16 22:31:32:255
-1.573;-9.959;-0.225;-1.339;-9.706;0.402;-0.36;-0.08;-0.152;0.436;-0.616;0.07;-0.7;-4.5;29.2;51.41;6095;2018-04-16 22:31:32:265
-1.573;-9.959;-0.225;-1.349;-9.7;0.511;-0.165;-0.286;-0.83;0.555;-0.362;0.065;-0.7;-4.5;29.2;51.41;6106;2018-04-16 22:31:32:276
-1.219;-9.961;-0.537;-1.355;-9.696;0.566;0.136;-0.265;-1.103;0.534;-0.127;0.068;-0.7;-4.3;29.3;51.41;6116;2018-04-16 22:31:32:286
-1.219;-9.961;-0.537;-1.355;-9.696;0.566;0.136;-0.265;-1.103;0.343;0.276;0.076;-0.7;-4.3;29.3;51.41;6126;2018-04-16 22:31:32:296
-0.66;-9.811;-0.666;-1.368;-9.691;0.612;0.709;-0.12;-1.278;0.343;0.276;0.076;-0.6;-4.1;29.3;51.41;6136;2018-04-16 22:31:32:306
-0.508;-9.634;-0.5;-1.368;-9.691;0.612;0.709;-0.12;-1.278;0.116;0.5;0.07;-0.6;-4.1;29.3;51.41;6146;2018-04-16 22:31:32:316
-0.508;-9.634;-0.5;-1.378;-9.691;0.601;0.856;0.092;-1.032;0.032;0.475;0.06;-0.6;-4.0;29.3;51.41;6156;2018-04-16 22:31:32:326
-0.613;-9.497;-0.275;-1.378;-9.691;0.601;0.856;0.092;-1.032;0.005;0.255;0.062;-0.6;-4.0;29.3;51.41;6166;2018-04-16 22:31:32:336
-0.613;-9.497;-0.275;-1.388;-9.69;0.589;0.685;0.292;-0.742;0.005;0.255;0.062;-0.5;-3.8;29.3;51.41;6176;2018-04-16 22:31:32:346
-0.954;-9.459;0.012;-1.388;-9.69;0.589;0.685;0.292;-0.742;0.024;-0.024;0.086;-0.5;-3.8;29.3;51.41;6186;2018-04-16 22:31:32:356
-1.228;-9.626;0.114;-1.402;-9.688;0.593;0.173;0.062;-0.479;0.039;-0.177;0.098;-0.5;-3.6;29.3;51.41;6196;2018-04-16 22:31:32:366
-1.64;-9.801;0.34;-1.402;-9.688;0.593;0.173;0.062;-0.479;0.055;-0.283;0.115;-0.5;-3.6;29.3;51.41;6206;2018-04-16 22:31:32:376
-1.64;-9.801;0.34;-1.424;-9.683;0.614;-0.276;-0.126;-0.255;0.095;-0.341;0.137;-0.5;-3.5;29.3;51.65;6216;2018-04-16 22:31:32:386
-1.717;-9.785;0.405;-1.424;-9.683;0.614;-0.276;-0.126;-0.255;0.191;-0.342;0.17;-0.5;-3.5;29.3;51.65;6226;2018-04-16 22:31:32:396
-1.686;-9.452;0.441;-1.454;-9.676;0.655;-0.239;0.087;-0.227;0.232;-0.303;0.166;-0.5;-3.3;29.4;51.65;6236;2018-04-16 22:31:32:406
-1.686;-9.452;0.441;-1.454;-9.676;0.655;-0.239;0.087;-0.227;0.277;-0.235;0.172;-0.5;-3.3;29.4;51.65;6246;2018-04-16 22:31:32:416
-1.511;-9.205;0.558;-1.484;-9.667;0.713;-0.026;0.463;-0.155;0.335;-0.145;0.172;-0.4;-3.1;29.5;51.65;6256;2018-04-16 22:31:32:426
-1.287;-9.099;0.719;-1.484;-9.667;0.713;-0.026;0.463;-0.155;0.432;-0.045;0.165;-0.4;-3.1;29.5;51.65;6266;2018-04-16 22:31:32:436
-1.053;-9.183;0.734;-1.515;-9.656;0.8;0.303;0.516;-0.043;0.572;0.062;0.167;-0.3;-3.0;29.5;51.65;6281;2018-04-16 22:31:32:451
-1.053;-9.183;0.734;-1.515;-9.656;0.8;0.303;0.516;-0.043;0.572;0.062;0.167;-0.3;-3.0;29.5;51.65;6286;2018-04-16 22:31:32:456
-0.625;-9.419;0.558;-1.545;-9.639;0.934;0.92;0.22;-0.376;0.804;0.221;0.165;-0.1;-2.8;29.6;51.65;6296;2018-04-16 22:31:32:466
-0.625;-9.419;0.558;-1.545;-9.639;0.934;0.92;0.22;-0.376;0.891;0.345;0.14;-0.1;-2.8;29.6;51.65;6306;2018-04-16 22:31:32:476
-0.26;-9.704;0.159;-1.565;-9.62;1.086;1.305;-0.084;-0.927;0.902;0.539;0.11;0.0;-2.6;29.6;51.65;6316;2018-04-16 22:31:32:486
-0.26;-9.704;0.159;-1.565;-9.62;1.086;1.305;-0.084;-0.927;0.902;0.539;0.11;0.0;-2.6;29.6;51.65;6326;2018-04-16 22:31:32:496
-0.067;-9.625;-0.087;-1.589;-9.599;1.225;1.522;-0.025;-1.312;0.891;0.628;0.121;0.0;-2.5;29.6;51.65;6336;2018-04-16 22:31:32:506
0.132;-9.456;-0.414;-1.589;-9.599;1.225;1.522;-0.025;-1.312;0.844;0.679;0.134;0.0;-2.3;29.5;51.65;6346;2018-04-16 22:31:32:516
0.132;-9.456;-0.414;-1.617;-9.579;1.343;1.761;0.082;-1.787;0.775;0.651;0.145;0.0;-2.3;29.5;51.65;6356;2018-04-16 22:31:32:526
0.219;-9.65;-0.484;-1.617;-9.579;1.343;1.761;0.082;-1.787;0.657;0.491;0.189;0.1;-2.0;29.5;51.65;6366;2018-04-16 22:31:32:536
0.219;-9.65;-0.484;-1.648;-9.56;1.435;1.936;-0.231;-1.904;0.657;0.491;0.189;0.1;-2.0;29.5;51.65;6375;2018-04-16 22:31:32:545
0.271;-9.834;-0.425;-1.648;-9.56;1.435;1.936;-0.231;-1.904;0.589;0.204;0.216;0.0;-1.7;29.4;51.65;6386;2018-04-16 22:31:32:556
0.017;-10.125;-0.251;-1.676;-9.54;1.532;1.693;-0.585;-1.784;0.596;-0.04;0.206;0.0;-1.5;29.4;51.65;6396;2018-04-16 22:31:32:566
-0.241;-10.55;-0.035;-1.676;-9.54;1.532;1.693;-0.585;-1.784;0.596;-0.331;0.231;0.0;-1.5;29.4;51.65;6406;2018-04-16 22:31:32:576
-0.241;-10.55;-0.035;-1.706;-9.515;1.652;1.403;-1.104;-1.609;0.52;-0.411;0.226;0.0;-1.2;29.2;51.65;6416;2018-04-16 22:31:32:586
-0.594;-10.879;0.263;-1.706;-9.515;1.652;1.403;-1.104;-1.609;0.52;-0.411;0.226;0.0;-1.2;29.2;51.65;6426;2018-04-16 22:31:32:596
-0.594;-10.879;0.263;-1.706;-9.515;1.652;1.403;-1.104;-1.609;0.52;-0.411;0.226;0.0;-1.2;29.2;51.65;6436;2018-04-16 22:31:32:606
-0.903;-11.092;0.575;-1.726;-9.494;1.746;0.824;-1.598;-1.171;0.376;-0.395;0.158;-0.1;-0.9;29.2;51.65;6446;2018-04-16 22:31:32:616
-0.903;-11.092;0.575;-1.726;-9.494;1.746;0.824;-1.598;-1.171;0.507;-0.29;0.051;-0.2;-0.6;29.2;51.65;6456;2018-04-16 22:31:32:626
-1.001;-11.589;0.29;-1.724;-9.467;1.889;0.723;-2.122;-1.6;0.457;-0.075;-0.07;-0.2;-0.6;29.2;51.65;6466;2018-04-16 22:31:32:636
-0.63;-11.928;-0.285;-1.724;-9.467;1.889;0.723;-2.122;-1.6;0.297;0.053;-0.128;-0.2;-0.3;29.1;51.65;6476;2018-04-16 22:31:32:646
-0.63;-11.928;-0.285;-1.702;-9.46;1.944;1.219;-2.597;-2.432;0.297;0.053;-0.128;-0.2;-0.3;29.1;51.65;6485;2018-04-16 22:31:32:655
-0.261;-12.305;-0.825;-1.702;-9.46;1.944;1.219;-2.597;-2.432;-0.023;0.057;-0.225;-0.2;0.0;29.1;51.65;6496;2018-04-16 22:31:32:666
-0.043;-12.354;-1.032;-1.652;-9.474;1.919;1.582;-2.921;-2.947;-0.484;-0.305;-0.378;-0.2;0.0;29.1;51.65;6506;2018-04-16 22:31:32:676
-0.043;-12.354;-1.032;-1.607;-9.491;1.874;1.517;-2.802;-2.849;-0.484;-0.305;-0.378;-0.3;0.2;28.9;51.65;6516;2018-04-16 22:31:32:686
-0.679;-11.949;-0.461;-1.607;-9.491;1.874;1.517;-2.802;-2.849;-0.701;-0.539;-0.45;-0.3;0.2;28.9;51.65;6526;2018-04-16 22:31:32:696
-1.483;-11.179;0.202;-1.496;-9.537;1.728;0.246;-1.873;-1.685;-0.988;-0.611;-0.49;-0.3;0.5;28.9;51.68;6536;2018-04-16 22:31:32:706
-1.483;-11.179;0.202;-1.496;-9.537;1.728;0.246;-1.873;-1.685;-1.239;-0.285;-0.583;-0.3;0.5;28.9;51.68;6546;2018-04-16 22:31:32:716
-2.529;-10.672;0.618;-1.377;-9.593;1.498;-1.152;-1.079;-0.88;-1.398;0.013;-0.591;-0.3;0.8;28.8;51.68;6555;2018-04-16 22:31:32:725
-3.191;-10.041;0.773;-1.377;-9.593;1.498;-1.152;-1.079;-0.88;-1.398;0.013;-0.591;-0.3;0.8;28.8;51.68;6566;2018-04-16 22:31:32:736
-3.191;-10.041;0.773;-1.285;-9.649;1.186;-1.958;-0.184;-0.375;-1.641;0.496;-0.517;-0.4;1.0;28.8;51.68;6576;2018-04-16 22:31:32:746
-3.433;-9.355;0.898;-1.285;-9.649;1.186;-1.958;-0.184;-0.375;-1.806;0.782;-0.479;-0.4;1.0;28.8;51.68;6586;2018-04-16 22:31:32:756
-3.614;-8.853;0.909;-1.235;-9.696;0.798;-2.379;0.843;0.11;-1.949;1.037;-0.441;-0.5;1.2;28.6;51.68;6597;2018-04-16 22:31:32:767
-3.873;-8.26;0.803;-1.235;-9.696;0.798;-2.379;0.843;0.11;-2.067;1.247;-0.432;-0.5;1.2;28.6;51.68;6606;2018-04-16 22:31:32:776
-3.873;-8.26;0.803;-1.182;-9.729;0.357;-2.761;1.498;0.467;-2.155;1.421;-0.447;-0.6;1.2;28.6;51.68;6616;2018-04-16 22:31:32:786
-4.276;-8.327;1.025;-1.182;-9.729;0.357;-2.761;1.498;0.467;-2.225;1.631;-0.45;-0.6;1.2;28.6;51.68;6626;2018-04-16 22:31:32:796
-4.318;-8.879;1.539;-1.129;-9.741;-0.108;-3.334;1.052;1.416;-2.209;1.778;-0.4;-0.8;1.1;28.6;51.68;6635;2018-04-16 22:31:32:805
-4.318;-8.879;1.539;-1.129;-9.741;-0.108;-3.334;1.052;1.416;-2.145;1.923;-0.352;-0.8;1.1;28.6;51.68;6646;2018-04-16 22:31:32:816
-4.669;-9.548;2.263;-1.059;-9.733;-0.555;-3.609;0.185;2.817;-2.006;2.035;-0.282;-1.0;1.0;28.4;51.68;6656;2018-04-16 22:31:32:826
-5.024;-10.313;2.872;-1.059;-9.733;-0.555;-3.609;0.185;2.817;-1.707;2.01;-0.147;-1.0;1.0;28.4;51.68;6665;2018-04-16 22:31:32:835
-4.946;-10.768;2.587;-1.001;-9.712;-0.924;-3.716;-0.786;3.624;-1.395;1.935;-0.086;-1.3;0.6;28.4;51.68;6677;2018-04-16 22:31:32:847
-4.946;-10.768;2.587;-1.001;-9.712;-0.924;-3.716;-0.786;3.624;-1.395;1.935;-0.086;-1.3;0.6;28.4;51.68;6686;2018-04-16 22:31:32:856
-4.985;-10.981;1.586;-0.946;-9.688;-1.191;-4.038;-1.293;2.777;-1.1;1.982;-0.05;-2.1;-0.5;28.0;51.68;6696;2018-04-16 22:31:32:866
-3.492;-11.012;-0.936;-0.946;-9.688;-1.191;-4.038;-1.293;2.777;-0.867;1.538;0.04;-2.1;-0.5;28.0;51.68;6706;2018-04-16 22:31:32:876
-3.492;-11.012;-0.936;-0.918;-9.666;-1.38;-1.902;-1.216;-0.684;-0.6;0.425;0.061;-3.4;-1.5;28.2;51.68;6716;2018-04-16 22:31:32:886
-1.951;-10.608;-3.554;-0.918;-9.666;-1.38;-1.902;-1.216;-0.684;-0.516;-0.748;0.04;-3.4;-1.5;28.2;51.68;6726;2018-04-16 22:31:32:896
-0.936;-9.463;-2.45;-0.949;-9.649;-1.469;-0.379;-0.331;-1.868;-0.516;-0.748;0.04;-4.8;-2.8;27.8;51.68;6736;2018-04-16 22:31:32:906
-0.936;-9.463;-2.45;-0.949;-9.649;-1.469;-0.379;-0.331;-1.868;-0.668;-1.555;0.088;-4.8;-2.8;27.8;51.68;6746;2018-04-16 22:31:32:916
-0.936;-9.463;-2.45;-0.949;-9.649;-1.469;-0.379;-0.331;-1.868;-0.668;-1.555;0.088;-4.8;-2.8;27.8;51.68;6756;2018-04-16 22:31:32:926
3.243;-9.443;0.697;-0.984;-9.63;-1.568;4.227;0.188;2.264;-0.753;-1.448;0.005;-3.9;-3.2;27.7;51.68;6766;2018-04-16 22:31:32:936
3.518;-11.286;1.431;-0.884;-9.619;-1.691;4.402;-1.667;3.121;-0.699;-0.082;-0.757;-4.4;-4.7;27.8;51.68;6776;2018-04-16 22:31:32:946
3.518;-11.286;1.431;-0.884;-9.619;-1.691;4.402;-1.667;3.121;-0.534;1.572;-0.955;-4.4;-4.7;27.8;51.68;6786;2018-04-16 22:31:32:956
1.913;-11.371;-0.369;-0.656;-9.613;-1.826;2.569;-1.758;1.457;-0.312;1.547;-0.944;-4.9;-5.0;27.2;51.68;6796;2018-04-16 22:31:32:966
-0.045;-10.761;-1.848;-0.656;-9.613;-1.826;2.569;-1.758;1.457;-0.312;1.547;-0.944;-4.9;-5.0;27.2;51.68;6806;2018-04-16 22:31:32:976
-0.045;-10.761;-1.848;-0.44;-9.615;-1.876;-0.422;-0.996;0.156;-0.086;1.035;-0.834;-5.6;-5.4;27.5;51.68;6816;2018-04-16 22:31:32:986
-1.59;-9.822;-1.33;-0.44;-9.615;-1.876;-0.422;-0.996;0.156;0.004;0.079;-0.64;-5.6;-5.4;27.5;51.68;6826;2018-04-16 22:31:32:996
-2.154;-9.149;-0.845;-0.325;-9.621;-1.872;-1.585;0.089;0.738;-0.006;-0.358;-0.574;-5.8;-5.9;27.3;51.68;6836;2018-04-16 22:31:33:006
-2.376;-8.096;0.419;-0.325;-9.621;-1.872;-1.585;0.089;0.738;-0.046;-0.538;-0.528;-5.8;-5.9;27.3;51.68;6846;2018-04-16 22:31:33:016
-2.376;-8.096;0.419;-0.244;-9.622;-1.878;-2.271;1.737;2.298;-0.046;-0.538;-0.528;-5.4;-5.4;27.4;55.1;6856;2018-04-16 22:31:33:026
-2.922;-7.457;0.139;-0.244;-9.622;-1.878;-2.271;1.737;2.298;-0.213;-0.518;-0.56;-5.4;-5.4;27.4;55.1;6866;2018-04-16 22:31:33:036
-2.842;-6.723;-0.175;-0.157;-9.612;-1.94;-2.738;2.776;1.99;-0.432;-0.475;-0.547;-5.7;-5.9;27.2;55.1;6875;2018-04-16 22:31:33:045
-2.842;-6.723;-0.175;-0.157;-9.612;-1.94;-2.738;2.776;1.99;-0.739;-0.544;-0.55;-5.7;-5.9;27.2;55.1;6886;2018-04-16 22:31:33:056
-2.494;-7.211;-0.63;-0.076;-9.583;-2.083;-2.417;2.371;1.453;-0.946;-0.585;-0.476;-5.6;-5.6;27.3;55.1;6896;2018-04-16 22:31:33:066
-1.72;-7.74;-0.98;-0.076;-9.583;-2.083;-2.417;2.371;1.453;-1.097;-0.577;-0.393;-5.6;-5.6;27.3;55.1;6906;2018-04-16 22:31:33:076
-1.72;-7.74;-0.98;-0.027;-9.535;-2.292;-1.693;1.794;1.312;-1.162;-0.564;-0.357;-6.0;-6.1;27.1;55.1;6916;2018-04-16 22:31:33:086
-1.624;-7.626;-1.201;-0.027;-9.535;-2.292;-1.693;1.794;1.312;-1.162;-0.564;-0.357;-6.0;-6.1;27.1;55.1;6926;2018-04-16 22:31:33:096
-1.961;-6.95;-1.295;-0.013;-9.478;-2.516;-1.82;2.183;1.225;-1.192;-0.476;-0.2;-6.2;-6.4;27.1;55.1;6935;2018-04-16 22:31:33:105
-1.961;-6.95;-1.295;-0.013;-9.478;-2.516;-1.82;2.183;1.225;-0.828;-0.436;-0.015;-6.3;-6.8;27.2;55.1;6946;2018-04-16 22:31:33:116
-2.036;-5.884;-0.985;-0.033;-9.437;-2.668;-2.003;3.553;1.683;-0.54;-0.389;0.061;-6.3;-6.8;27.2;55.1;6956;2018-04-16 22:31:33:126
-1.772;-5.341;-1.134;-0.033;-9.437;-2.668;-2.003;3.553;1.683;-0.263;-0.358;0.115;-6.4;-7.2;27.2;55.1;6966;2018-04-16 22:31:33:136
-1.772;-5.341;-1.134;-0.076;-9.423;-2.715;-1.586;4.114;1.537;-0.263;-0.358;0.115;-6.4;-7.2;27.2;55.1;6976;2018-04-16 22:31:33:146
-1.369;-5.45;-1.314;-0.076;-9.423;-2.715;-1.586;4.114;1.537;0.119;-0.415;0.194;-6.5;-7.6;27.1;55.1;6986;2018-04-16 22:31:33:156
-0.904;-6.075;-1.699;-0.141;-9.435;-2.672;-0.948;3.654;1.144;0.31;-0.439;0.244;-6.5;-7.6;27.1;55.1;6996;2018-04-16 22:31:33:166
-0.904;-6.075;-1.699;-0.141;-9.435;-2.672;-0.948;3.654;1.144;0.492;-0.441;0.338;-6.4;-7.8;27.1;55.1;7006;2018-04-16 22:31:33:176
-0.45;-6.722;-2.157;-0.23;-9.459;-2.578;-0.221;2.737;0.42;0.492;-0.441;0.338;-6.4;-7.8;27.1;55.1;7016;2018-04-16 22:31:33:186
-0.049;-7.567;-2.662;-0.23;-9.459;-2.578;-0.221;2.737;0.42;0.558;-0.491;0.435;-6.3;-8.1;27.0;55.1;7026;2018-04-16 22:31:33:196
-0.049;-7.567;-2.662;-0.344;-9.484;-2.472;0.387;1.655;-0.371;0.558;-0.491;0.435;-6.3;-8.1;27.0;55.1;7036;2018-04-16 22:31:33:206
0.13;-8.458;-3.29;-0.344;-9.484;-2.472;0.387;1.655;-0.371;0.442;-0.557;0.536;-6.1;-8.3;27.0;55.1;7046;2018-04-16 22:31:33:216
0.257;-9.109;-3.747;-0.473;-9.495;-2.408;0.73;0.386;-1.339;0.303;-0.608;0.574;-6.1;-8.3;27.0;55.1;7055;2018-04-16 22:31:33:225
0.916;-10.351;-4.772;-0.473;-9.495;-2.408;0.73;0.386;-1.339;-0.105;-0.685;0.575;-6.0;-8.5;27.1;55.1;7066;2018-04-16 22:31:33:236
0.916;-10.351;-4.772;-0.616;-9.488;-2.402;1.788;-1.319;-2.676;-0.358;-0.659;0.473;-6.0;-8.5;27.1;55.1;7076;2018-04-16 22:31:33:246
1.733;-11.976;-6.061;-0.616;-9.488;-2.402;1.788;-1.319;-2.676;-0.626;-0.572;0.315;-5.9;-8.5;27.1;55.1;7086;2018-04-16 22:31:33:256
3.163;-12.678;-7.456;-0.707;-9.456;-2.502;3.514;-3.114;-4.598;-0.821;-0.463;0.082;-5.9;-8.5;27.1;55.1;7096;2018-04-16 22:31:33:266
3.163;-12.678;-7.456;-0.707;-9.456;-2.502;3.514;-3.114;-4.598;-0.855;-0.445;-0.244;-5.7;-8.6;27.1;55.1;7106;2018-04-16 22:31:33:276
3.965;-12.785;-7.319;-0.681;-9.417;-2.651;4.646;-3.368;-4.668;-0.855;-0.445;-0.244;-5.7;-8.6;27.1;55.1;7115;2018-04-16 22:31:33:285
3.287;-11.57;-5.631;-0.681;-9.417;-2.651;4.646;-3.368;-4.668;-0.453;-0.39;-0.67;-5.5;-8.7;27.2;55.1;7126;2018-04-16 22:31:33:296
3.287;-11.57;-5.631;-0.553;-9.414;-2.69;3.623;-1.746;-2.842;-0.028;-0.128;-0.808;-5.5;-8.7;27.2;55.1;7135;2018-04-16 22:31:33:305
2.461;-10.026;-5.671;-0.553;-9.414;-2.69;3.623;-1.746;-2.842;0.479;0.084;-0.87;-5.3;-8.8;27.2;55.1;7146;2018-04-16 22:31:33:316
1.246;-9.088;-4.457;-0.388;-9.447;-2.601;2.138;0.108;-2.529;0.687;-0.057;-0.826;-5.3;-8.8;27.2;55.1;7156;2018-04-16 22:31:33:326
1.246;-9.088;-4.457;-0.388;-9.447;-2.601;2.138;0.108;-2.529;0.822;-0.286;-0.688;-5.1;-9.0;27.3;55.1;7166;2018-04-16 22:31:33:336
-0.466;-9.258;-2.914;-0.273;-9.491;-2.453;-0.193;0.233;-0.461;0.822;-0.286;-0.688;-5.1;-9.0;27.3;55.1;7176;2018-04-16 22:31:33:346
-2.804;-9.886;-3.144;-0.273;-9.491;-2.453;-0.193;0.233;-0.461;0.869;-0.567;-0.318;-4.9;-9.0;27.2;55.1;7185;2018-04-16 22:31:33:355
-2.804;-9.886;-3.144;-0.278;-9.528;-2.305;-2.956;-0.421;-0.692;0.673;-0.775;-0.028;-4.9;-9.0;27.2;58.08;7195;2018-04-16 22:31:33:365
-4.002;-10.076;-2.367;-0.278;-9.528;-2.305;-2.956;-0.421;-0.692;0.191;-0.914;0.29;-4.7;-9.0;27.3;58.08;7205;2018-04-16 22:31:33:375
-4.002;-10.076;-2.367;-0.371;-9.534;-2.264;-3.41;-0.928;0.283;0.191;-0.914;0.29;-4.7;-9.0;27.3;58.08;7216;2018-04-16 22:31:33:386
-2.733;-11.334;-2.028;-0.371;-9.534;-2.264;-3.41;-0.928;0.283;-0.149;-0.721;0.28;-4.5;-9.0;27.3;58.08;7226;2018-04-16 22:31:33:396
-1.115;-12.678;-2.292;-0.437;-9.525;-2.292;-0.678;-3.154;0.0;-0.188;-0.545;0.117;-4.5;-9.0;27.3;58.08;7236;2018-04-16 22:31:33:406
-0.043;-14.702;-4.342;-0.437;-9.525;-2.292;-0.678;-3.154;0.0;-0.161;0.106;-0.214;-4.3;-8.9;27.4;58.08;7245;2018-04-16 22:31:33:415
-0.043;-14.702;-4.342;-0.392;-9.518;-2.327;-0.283;-5.291;-1.656;-0.235;0.688;-0.276;-4.3;-8.9;27.4;58.08;7256;2018-04-16 22:31:33:426
-1.95;-12.364;-1.967;-0.392;-9.518;-2.327;-0.283;-5.291;-1.656;-0.235;0.688;-0.276;-4.1;-8.7;27.3;58.08;7266;2018-04-16 22:31:33:436
-3.097;-6.721;2.302;-0.325;-9.513;-2.361;-2.416;0.952;2.951;-0.106;1.509;0.039;-4.1;-8.7;27.3;58.08;7276;2018-04-16 22:31:33:446
-3.097;-6.721;2.302;-0.325;-9.513;-2.361;-2.416;0.952;2.951;0.082;1.919;0.144;-3.9;-8.5;27.4;58.08;7286;2018-04-16 22:31:33:456
-3.223;-4.931;2.383;-0.252;-9.522;-2.33;-2.971;4.592;4.713;0.337;2.098;0.078;-3.9;-8.5;27.4;58.08;7296;2018-04-16 22:31:33:466
-4.409;-5.825;1.019;-0.252;-9.522;-2.33;-2.971;4.592;4.713;0.552;2.104;-0.187;-3.9;-8.4;27.5;58.08;7306;2018-04-16 22:31:33:476
-4.409;-5.825;1.019;-0.127;-9.549;-2.229;-4.589;3.431;3.024;0.552;2.104;-0.187;-3.9;-8.4;27.5;58.08;7316;2018-04-16 22:31:33:486
-5.131;-6.677;-0.3;-0.127;-9.549;-2.229;-4.589;3.431;3.024;0.797;1.869;-0.073;-3.9;-8.2;27.6;58.08;7326;2018-04-16 22:31:33:496
-5.222;-7.529;-0.717;-0.086;-9.587;-2.062;-5.136;2.058;1.345;0.949;1.5;0.195;-3.9;-8.2;27.6;58.08;7336;2018-04-16 22:31:33:506
-5.222;-7.529;-0.717;-0.086;-9.587;-2.062;-5.136;2.058;1.345;1.079;1.08;0.538;-4.1;-8.1;27.5;58.08;7346;2018-04-16 22:31:33:516
-4.665;-9.56;0.286;-0.2;-9.629;-1.85;-4.466;0.068;2.136;1.002;0.969;1.051;-4.2;-8.0;27.4;58.08;7356;2018-04-16 22:31:33:526
-4.665;-9.56;0.286;-0.2;-9.629;-1.85;-4.466;0.068;2.136;1.002;0.969;1.051;-4.2;-8.0;27.4;58.08;7366;2018-04-16 22:31:33:536
-4.099;-10.503;-0.169;-0.375;-9.651;-1.701;-3.724;-0.853;1.532;0.632;1.026;1.124;-4.4;-7.8;27.3;58.08;7376;2018-04-16 22:31:33:546
-4.099;-10.503;-0.169;-0.375;-9.651;-1.701;-3.724;-0.853;1.532;0.071;0.955;0.994;-4.4;-7.8;27.3;58.08;7386;2018-04-16 22:31:33:556
-3.118;-10.007;-0.499;-0.538;-9.644;-1.696;-2.581;-0.363;1.197;-0.217;0.656;0.889;-4.7;-7.5;27.2;58.08;7395;2018-04-16 22:31:33:565
-2.492;-9.628;-0.491;-0.538;-9.644;-1.696;-2.581;-0.363;1.197;-0.261;0.004;0.864;-4.7;-7.5;27.2;58.08;7406;2018-04-16 22:31:33:576
-2.492;-9.628;-0.491;-0.72;-9.625;-1.738;-1.687;-0.033;1.153;-0.261;0.004;0.864;-5.1;-7.2;27.2;58.08;7416;2018-04-16 22:31:33:586
-2.096;-9.924;-0.965;-0.72;-9.625;-1.738;-1.687;-0.033;1.153;-0.334;-1.023;0.872;-5.1;-7.2;27.2;58.08;7426;2018-04-16 22:31:33:596
-2.096;-9.924;-0.965;-0.72;-9.625;-1.738;-1.687;-0.033;1.153;-0.334;-1.023;0.872;-5.1;-7.2;27.2;58.08;7436;2018-04-16 22:31:33:606
-2.096;-9.924;-0.965;-0.72;-9.625;-1.738;-1.687;-0.033;1.153;-0.334;-1.023;0.872;-5.1;-7.2;27.2;58.08;7446;2018-04-16 22:31:33:616
-2.203;-10.519;-1.128;-0.94;-9.595;-1.797;-1.263;-0.924;0.669;-0.497;-1.443;0.897;-5.5;-6.9;27.1;58.08;7456;2018-04-16 22:31:33:626
-2.203;-10.519;-1.128;-0.94;-9.595;-1.797;-1.263;-0.924;0.669;0.886;-3.2;1.214;-5.5;-6.9;27.1;58.08;7465;2018-04-16 22:31:33:635
1.706;-10.714;0.205;-1.555;-9.55;-1.597;3.261;-1.164;1.802;1.357;-3.272;0.892;-5.9;-6.2;27.0;58.08;7476;2018-04-16 22:31:33:646
0.569;-11.222;-0.539;-1.555;-9.55;-1.597;3.261;-1.164;1.802;1.406;-3.126;0.512;-5.9;-6.2;27.0;58.08;7486;2018-04-16 22:31:33:656
0.569;-11.222;-0.539;-1.745;-9.571;-1.229;2.053;-1.593;0.749;1.296;-2.825;0.39;-5.9;-5.8;27.0;58.08;7496;2018-04-16 22:31:33:666
0.359;-10.233;-0.412;-1.745;-9.571;-1.229;2.053;-1.593;0.749;1.157;-2.428;0.368;-5.9;-5.8;27.0;58.08;7506;2018-04-16 22:31:33:676
1.277;-8.304;-0.352;-1.855;-9.585;-0.922;2.74;0.626;0.272;1.157;-2.428;0.368;-5.9;-5.5;27.0;60.24;7516;2018-04-16 22:31:33:686
1.277;-8.304;-0.352;-1.855;-9.585;-0.922;2.74;0.626;0.272;0.926;-1.831;0.216;-5.9;-5.5;27.0;60.24;7526;2018-04-16 22:31:33:696
1.275;-7.902;0.163;-1.896;-9.596;-0.704;3.171;1.694;0.867;0.77;-1.24;-0.018;-5.7;-5.1;27.0;60.24;7536;2018-04-16 22:31:33:706
-0.043;-8.891;0.294;-1.896;-9.596;-0.704;3.171;1.694;0.867;0.588;-0.662;-0.224;-5.7;-5.1;27.0;60.24;7547;2018-04-16 22:31:33:717
-0.043;-8.891;0.294;-1.85;-9.612;-0.595;1.668;0.598;0.959;0.391;-0.208;-0.275;-5.2;-4.4;26.8;60.24;7555;2018-04-16 22:31:33:725
-0.31;-9.184;0.291;-1.85;-9.612;-0.595;1.668;0.598;0.959;0.191;0.246;-0.225;-5.2;-4.4;26.8;60.24;7566;2018-04-16 22:31:33:736
-0.359;-9.267;0.445;-1.794;-9.625;-0.562;1.51;0.407;0.942;0.134;0.415;-0.222;-4.8;-3.8;27.1;60.24;7576;2018-04-16 22:31:33:746
-0.359;-9.267;0.445;-1.794;-9.625;-0.562;1.51;0.407;0.942;0.134;0.415;-0.222;-4.8;-3.8;27.1;60.24;7586;2018-04-16 22:31:33:756
-0.807;-9.534;0.725;-1.726;-9.638;-0.543;0.919;0.104;1.268;0.171;0.612;-0.285;-4.3;-3.0;27.3;60.24;7596;2018-04-16 22:31:33:766
-1.299;-9.651;0.713;-1.726;-9.638;-0.543;0.919;0.104;1.268;0.299;0.723;-0.321;-4.3;-3.0;27.3;60.24;7605;2018-04-16 22:31:33:775
-1.299;-9.651;0.713;-1.651;-9.655;-0.482;0.29;0.043;1.139;0.468;0.805;-0.325;-4.7;-3.0;26.8;60.24;7616;2018-04-16 22:31:33:786
-1.462;-9.465;0.52;-1.651;-9.655;-0.482;0.29;0.043;1.139;0.619;0.864;-0.309;-4.6;-2.6;26.7;60.24;7626;2018-04-16 22:31:33:796
-1.462;-9.465;0.52;-1.584;-9.671;-0.37;0.033;0.387;0.756;0.619;0.864;-0.309;-4.6;-2.6;26.7;60.24;7636;2018-04-16 22:31:33:806
-1.632;-9.02;0.292;-1.584;-9.671;-0.37;0.033;0.387;0.756;0.789;0.947;-0.264;-4.6;-2.5;26.9;60.24;7646;2018-04-16 22:31:33:816
-1.695;-8.523;0.189;-1.534;-9.683;-0.243;-0.142;1.001;0.461;0.828;0.992;-0.206;-4.6;-2.5;26.9;60.24;7655;2018-04-16 22:31:33:825
-1.695;-8.523;0.189;-1.534;-9.683;-0.243;-0.142;1.001;0.461;0.85;1.007;-0.18;-4.5;-1.9;26.7;60.24;7666;2018-04-16 22:31:33:836
-1.897;-8.464;0.043;-1.498;-9.691;-0.105;-0.4;1.227;0.148;0.882;0.975;-0.164;-4.5;-1.9;26.7;60.24;7676;2018-04-16 22:31:33:846
-2.395;-8.929;-0.008;-1.498;-9.691;-0.105;-0.4;1.227;0.148;0.949;0.893;-0.131;-4.4;-1.8;26.9;60.24;7686;2018-04-16 22:31:33:856
-2.395;-8.929;-0.008;-1.484;-9.693;0.069;-1.037;0.65;-0.063;1.084;0.738;-0.073;-4.4;-1.8;26.9;60.24;7696;2018-04-16 22:31:33:866
-2.776;-9.261;-0.002;-1.484;-9.693;0.069;-1.037;0.65;-0.063;1.475;0.371;-0.004;-4.2;-1.5;26.7;60.24;7706;2018-04-16 22:31:33:876
-3.092;-9.389;-0.049;-1.498;-9.685;0.344;-1.452;0.355;-0.406;1.764;0.098;0.031;-4.2;-1.5;26.7;60.24;7716;2018-04-16 22:31:33:886
-3.092;-9.389;-0.049;-1.537;-9.659;0.71;-1.247;0.261;-0.944;1.93;-0.066;0.136;-4.0;-1.3;26.9;60.24;7727;2018-04-16 22:31:33:897
-2.784;-9.398;-0.233;-1.537;-9.659;0.71;-1.247;0.261;-0.944;1.93;-0.066;0.136;-4.0;-1.3;26.9;60.24;7736;2018-04-16 22:31:33:906
-2.12;-9.048;-0.521;-1.537;-9.659;0.71;-1.247;0.261;-0.944;1.869;-0.09;0.259;-3.8;-0.9;26.9;60.24;7746;2018-04-16 22:31:33:916
-2.12;-9.048;-0.521;-1.592;-9.62;1.045;-0.511;0.505;-1.566;1.724;-0.054;0.264;-3.8;-0.9;26.9;60.24;7756;2018-04-16 22:31:33:926
-1.924;-9.346;-0.722;-1.592;-9.62;1.045;-0.511;0.505;-1.566;1.657;-0.042;0.307;-3.6;-0.3;26.8;60.24;7766;2018-04-16 22:31:33:936
-1.924;-9.346;-0.722;-1.655;-9.571;1.349;0.415;0.117;-2.782;1.737;-0.037;0.349;-3.6;-0.3;26.8;60.24;7776;2018-04-16 22:31:33:946
-0.551;-9.699;-2.504;-1.655;-9.571;1.349;0.415;0.117;-2.782;1.703;0.243;0.21;-3.6;0.2;26.6;60.24;7786;2018-04-16 22:31:33:956
0.042;-10.461;-3.82;-1.698;-9.518;1.644;1.653;-0.673;-5.234;1.403;0.712;0.055;-3.6;0.2;26.6;60.24;7795;2018-04-16 22:31:33:965
0.042;-10.461;-3.82;-1.698;-9.518;1.644;1.653;-0.673;-5.234;1.403;0.712;0.055;-3.9;1.5;26.3;60.24;7806;2018-04-16 22:31:33:976
0.311;-10.72;-3.407;-1.737;-9.492;1.745;2.048;-1.228;-5.152;0.467;1.545;-0.054;-3.9;1.5;26.3;60.24;7816;2018-04-16 22:31:33:986
0.424;-10.934;-2.243;-1.737;-9.492;1.745;2.048;-1.228;-5.152;-0.582;1.719;-0.016;-4.2;2.4;25.8;60.24;7826;2018-04-16 22:31:33:996
0.424;-10.934;-2.243;-1.792;-9.512;1.573;2.309;-1.466;-3.401;-1.038;1.338;0.076;-4.2;2.4;25.8;55.53;7836;2018-04-16 22:31:34:006
1.167;-11.03;-0.639;-1.792;-9.512;1.573;2.309;-1.466;-3.401;-1.065;0.64;0.133;-4.8;3.1;25.5;55.53;7846;2018-04-16 22:31:34:016
1.167;-11.03;-0.639;-1.83;-9.537;1.365;3.215;-1.817;-1.241;-1.065;0.64;0.133;-4.8;3.1;25.5;55.53;7856;2018-04-16 22:31:34:026
1.124;-11.866;0.51;-1.83;-9.537;1.365;3.215;-1.817;-1.241;-0.435;-0.61;0.009;-5.3;3.5;25.3;55.53;7866;2018-04-16 22:31:34:036
1.124;-11.866;0.51;-1.794;-9.547;1.344;2.437;-2.927;-0.321;-0.15;-1.133;-0.12;-5.3;3.5;25.3;55.53;7876;2018-04-16 22:31:34:046
0.644;-12.801;1.348;-1.794;-9.547;1.344;2.437;-2.927;-0.321;-0.015;-1.401;-0.148;-5.4;3.7;25.2;55.53;7886;2018-04-16 22:31:34:056
0.97;-12.651;1.526;-1.727;-9.553;1.388;2.697;-3.098;0.138;-0.04;-1.28;-0.187;-5.4;3.7;25.2;55.53;7896;2018-04-16 22:31:34:066
1.243;-12.317;1.466;-1.727;-9.553;1.388;2.697;-3.098;0.138;-0.039;-1.137;-0.27;-5.3;3.7;25.2;55.53;7906;2018-04-16 22:31:34:076
1.243;-12.317;1.466;-1.648;-9.562;1.421;2.835;-2.717;-0.065;-0.039;-1.137;-0.27;-5.3;3.7;25.2;55.53;7916;2018-04-16 22:31:34:086
0.845;-12.312;0.725;-1.648;-9.562;1.421;2.835;-2.717;-0.065;0.02;-1.014;-0.369;-5.5;3.9;25.3;55.53;7926;2018-04-16 22:31:34:096
0.845;-12.312;0.725;-1.536;-9.574;1.465;1.692;-3.034;-2.056;0.119;-0.843;-0.505;-5.5;3.9;25.3;55.53;7935;2018-04-16 22:31:34:105
-0.69;-12.553;-1.889;-1.536;-9.574;1.465;1.692;-3.034;-2.056;-0.075;-0.501;-0.688;-5.7;4.4;25.2;55.53;7946;2018-04-16 22:31:34:116
-1.719;-12.31;-2.631;-1.391;-9.598;1.457;-0.328;-2.712;-4.088;-0.075;-0.501;-0.688;-5.7;4.4;25.2;55.53;7956;2018-04-16 22:31:34:126
-2.899;-11.692;-2.063;-1.391;-9.598;1.457;-0.328;-2.712;-4.088;-0.691;-0.017;-0.814;-5.8;4.8;25.2;55.53;7966;2018-04-16 22:31:34:136
-2.899;-11.692;-2.063;-1.236;-9.647;1.259;-1.903;-1.838;-3.046;-1.261;0.335;-0.844;-5.8;4.8;25.2;55.53;7976;2018-04-16 22:31:34:146
-3.796;-10.906;-1.128;-1.236;-9.647;1.259;-1.903;-1.838;-3.046;-1.797;0.698;-0.822;-5.8;5.1;25.0;55.53;7986;2018-04-16 22:31:34:156
-3.796;-10.906;-1.128;-1.104;-9.708;0.845;-3.152;-0.531;-1.47;-1.797;0.698;-0.822;-5.8;5.1;25.0;55.53;7996;2018-04-16 22:31:34:166
-4.539;-9.521;-0.458;-1.104;-9.708;0.845;-3.152;-0.531;-1.47;-2.553;1.271;-0.668;-5.9;5.3;25.0;55.53;8006;2018-04-16 22:31:34:176
-4.706;-9.129;0.664;-1.005;-9.75;0.297;-3.748;0.575;-0.179;-2.767;1.398;-0.61;-5.9;5.3;25.0;55.53;8016;2018-04-16 22:31:34:186
-4.706;-9.129;0.664;-1.005;-9.75;0.297;-3.748;0.575;-0.179;-2.854;1.526;-0.522;-6.0;5.5;24.9;55.53;8026;2018-04-16 22:31:34:196
-4.451;-8.726;2.231;-0.922;-9.759;-0.279;-3.529;1.034;2.511;-2.751;1.577;-0.497;-6.0;5.5;24.9;55.53;8036;2018-04-16 22:31:34:206
-3.843;-8.926;3.352;-0.922;-9.759;-0.279;-3.529;1.034;2.511;-2.442;1.352;-0.538;-6.2;5.5;24.8;55.53;8046;2018-04-16 22:31:34:216
-3.843;-8.926;3.352;-0.818;-9.744;-0.749;-3.025;0.818;4.101;-2.442;1.352;-0.538;-6.2;5.5;24.8;55.53;8056;2018-04-16 22:31:34:226
-4.507;-9.967;3.342;-0.818;-9.744;-0.749;-3.025;0.818;4.101;-2.015;0.955;-0.571;-6.3;5.4;24.8;55.53;8066;2018-04-16 22:31:34:236
-5.339;-10.995;3.79;-0.7;-9.72;-1.092;-4.639;-1.275;4.882;-1.574;0.94;-0.49;-6.3;5.4;24.8;55.53;8076;2018-04-16 22:31:34:246
-5.596;-11.936;3.408;-0.7;-9.72;-1.092;-4.639;-1.275;4.882;-1.328;1.217;-0.382;-6.6;5.1;24.8;55.53;8086;2018-04-16 22:31:34:256
-5.596;-11.936;3.408;-0.603;-9.694;-1.35;-4.728;-2.156;4.163;-1.13;1.899;-0.21;-6.9;4.7;24.8;55.53;8096;2018-04-16 22:31:34:266
-4.48;-11.535;0.509;-0.603;-9.694;-1.35;-4.728;-2.156;4.163;-1.102;1.987;-0.154;-6.9;4.7;24.8;55.53;8106;2018-04-16 22:31:34:276
-4.48;-11.535;0.509;-0.521;-9.664;-1.582;-2.52;-1.597;-2.339;-1.102;1.987;-0.154;-7.8;3.3;24.6;55.53;8116;2018-04-16 22:31:34:286
-2.377;-10.937;-5.169;-0.521;-9.664;-1.582;-2.52;-1.597;-2.339;-1.054;0.066;-0.088;-7.8;3.3;24.6;55.53;8126;2018-04-16 22:31:34:296
-2.377;-10.937;-5.169;-0.537;-9.627;-1.79;-0.278;-0.723;-1.796;-1.156;-1.274;0.001;-8.6;2.2;24.9;55.53;8136;2018-04-16 22:31:34:306
2.625;-10.116;-0.882;-0.537;-9.627;-1.79;-0.278;-0.723;-1.796;-1.146;-2.246;-0.072;-8.6;2.2;24.9;55.53;8146;2018-04-16 22:31:34:316
4.641;-10.854;2.543;-0.573;-9.59;-1.97;4.71;-1.013;3.568;-1.062;-2.056;-0.621;-8.7;1.0;24.6;54.18;8156;2018-04-16 22:31:34:326
4.641;-10.854;2.543;-0.573;-9.59;-1.97;4.71;-1.013;3.568;-1.062;-2.056;-0.621;-8.7;1.0;24.6;54.18;8166;2018-04-16 22:31:34:336
3.06;-11.621;1.99;-0.4;-9.555;-2.172;3.46;-2.067;4.162;-1.089;0.169;-1.161;-8.4;0.4;25.8;54.18;8176;2018-04-16 22:31:34:346
0.844;-10.02;-0.43;-0.4;-9.555;-2.172;3.46;-2.067;4.162;-0.731;1.288;-1.032;-8.4;0.4;25.8;54.18;8186;2018-04-16 22:31:34:356
0.844;-10.02;-0.693;-0.129;-9.526;-2.327;0.712;-0.135;1.602;-0.545;1.009;-0.838;-8.9;-0.5;26.5;54.18;8196;2018-04-16 22:31:34:366
0.089;-9.274;-0.693;-0.129;-9.526;-2.327;0.712;-0.135;1.602;-0.545;1.009;-0.838;-8.9;-0.5;26.5;54.18;8206;2018-04-16 22:31:34:376
-0.716;-9.007;-0.239;0.036;-9.51;-2.391;-0.751;0.504;2.152;-0.241;0.375;-0.6;-9.9;-1.4;24.6;54.18;8216;2018-04-16 22:31:34:386
-1.495;-8.807;0.15;0.036;-9.51;-2.391;-0.751;0.504;2.152;-0.095;-0.018;-0.414;-9.9;-1.4;24.6;54.18;8226;2018-04-16 22:31:34:396
-1.495;-8.807;0.15;0.113;-9.507;-2.403;-2.026;0.89;2.8;-0.128;-0.044;-0.408;-9.8;-2.0;26.7;54.18;8236;2018-04-16 22:31:34:406
-2.71;-7.98;0.335;0.113;-9.507;-2.403;-2.026;0.89;2.8;-0.233;-0.066;-0.431;-9.8;-2.0;26.7;54.18;8246;2018-04-16 22:31:34:416
-2.71;-7.98;0.335;0.19;-9.494;-2.449;-3.748;2.522;2.66;-0.233;-0.066;-0.431;-10.3;-2.1;25.5;54.18;8256;2018-04-16 22:31:34:426
-4.33;-6.102;0.46;0.19;-9.494;-2.449;-3.748;2.522;2.66;-0.497;-0.287;-0.48;-10.3;-2.1;25.5;54.18;8266;2018-04-16 22:31:34:436
-4.33;-6.102;0.46;0.258;-9.462;-2.563;-5.086;4.104;3.028;-0.671;-0.352;-0.424;-10.1;-2.5;25.8;54.18;8275;2018-04-16 22:31:34:445
-4.379;-4.927;0.548;0.258;-9.462;-2.563;-5.086;4.104;3.028;-0.878;-0.277;-0.323;-10.1;-2.5;25.8;54.18;8286;2018-04-16 22:31:34:456
-3.409;-5.511;-0.555;0.3;-9.41;-2.745;-3.965;4.164;2.682;-1.03;-0.104;-0.246;-10.2;-2.2;25.8;54.18;8296;2018-04-16 22:31:34:466
-3.409;-5.511;-0.555;0.3;-9.41;-2.745;-3.965;4.164;2.682;-1.095;0.046;-0.16;-10.2;-2.2;25.8;54.18;8306;2018-04-16 22:31:34:476
-2.811;-6.003;-1.326;0.322;-9.348;-2.946;-3.132;3.344;1.62;-1.015;0.111;0.035;-10.3;-2.2;25.6;54.18;8316;2018-04-16 22:31:34:486
-2.508;-5.702;-1.329;0.322;-9.348;-2.946;-3.132;3.344;1.62;-1.015;0.111;0.035;-10.3;-2.2;25.6;54.18;8326;2018-04-16 22:31:34:496
-2.508;-5.702;-1.329;0.287;-9.301;-3.095;-2.68;3.767;1.814;-0.688;0.034;0.275;-10.5;-2.9;25.6;54.18;8336;2018-04-16 22:31:34:506
-2.079;-5.149;-1.183;0.287;-9.301;-3.095;-2.68;3.767;1.814;-0.206;-0.018;0.506;-10.5;-2.9;25.6;54.18;8346;2018-04-16 22:31:34:516
-1.723;-4.952;-1.16;0.191;-9.292;-3.13;-1.914;4.339;1.97;0.137;-0.048;0.627;-10.7;-3.4;25.6;54.18;8356;2018-04-16 22:31:34:526
-1.205;-5.174;-1.343;0.191;-9.292;-3.13;-1.914;4.339;1.97;0.445;-0.066;0.729;-10.7;-3.4;25.6;54.18;8366;2018-04-16 22:31:34:536
-1.205;-5.174;-1.343;0.05;-9.321;-3.046;-1.057;3.976;1.556;0.445;-0.066;0.729;-10.9;-3.8;25.6;54.18;8376;2018-04-16 22:31:34:546
-0.51;-5.764;-1.865;0.05;-9.321;-3.046;-1.057;3.976;1.556;0.816;-0.176;0.859;-10.9;-3.8;25.6;54.18;8386;2018-04-16 22:31:34:556
0.03;-6.719;-2.878;-0.131;-9.374;-2.877;-0.007;3.05;0.46;0.975;-0.316;0.907;-11.0;-4.1;25.8;54.18;8395;2018-04-16 22:31:34:565
0.03;-6.719;-2.878;-0.131;-9.374;-2.877;-0.007;3.05;0.46;1.023;-0.601;0.941;-11.0;-4.1;25.8;54.18;8406;2018-04-16 22:31:34:576
0.219;-7.943;-4.179;-0.341;-9.424;-2.689;0.56;1.482;-1.49;1.023;-0.601;0.941;-11.0;-4.3;25.9;54.18;8416;2018-04-16 22:31:34:586
0.69;-9.978;-5.982;-0.341;-9.424;-2.689;0.56;1.482;-1.49;0.815;-0.969;0.996;-11.0;-4.3;25.9;54.18;8426;2018-04-16 22:31:34:596
0.69;-9.978;-5.982;-0.597;-9.449;-2.555;1.793;-1.217;-3.974;0.519;-1.206;1.07;-11.0;-4.5;25.9;54.18;8436;2018-04-16 22:31:34:606
1.697;-11.675;-6.958;-0.597;-9.449;-2.555;1.793;-1.217;-3.974;0.13;-1.396;1.064;-11.0;-4.5;25.9;54.18;8449;2018-04-16 22:31:34:619
3.355;-14.311;-7.898;-0.856;-9.431;-2.548;4.212;-4.88;-5.35;-0.06;-1.497;1.01;-10.9;-4.5;26.0;54.18;8460;2018-04-16 22:31:34:630
3.355;-14.311;-7.898;-0.856;-9.431;-2.548;4.212;-4.88;-5.35;-0.06;-1.497;1.01;-10.9;-4.5;26.0;54.18;8466;2018-04-16 22:31:34:636
6.043;-16.418;-5.807;-0.988;-9.395;-2.63;7.031;-7.023;-3.177;-0.574;-1.01;0.137;-11.0;-4.6;26.0;54.18;8476;2018-04-16 22:31:34:646
5.452;-13.807;-6.45;-0.988;-9.395;-2.63;7.031;-7.023;-3.177;-0.13;0.781;-0.955;-11.0;-4.6;26.0;54.18;8486;2018-04-16 22:31:34:656
5.452;-13.807;-6.45;-0.805;-9.4;-2.675;5.416;-3.648;-4.382;0.059;1.25;-1.297;-10.9;-4.6;26.0;61.65;8496;2018-04-16 22:31:34:666
3.443;-11.511;-8.908;-0.805;-9.4;-2.675;5.416;-3.648;-4.382;0.143;1.075;-1.411;-10.9;-4.6;26.0;61.65;8506;2018-04-16 22:31:34:676
2.388;-10.017;-9.649;-0.492;-9.425;-2.666;2.88;-0.593;-6.983;0.12;0.248;-1.337;-10.9;-4.6;26.2;61.65;8516;2018-04-16 22:31:34:686
1.117;-7.909;-4.368;-0.492;-9.425;-2.666;2.88;-0.593;-6.983;0.227;-0.617;-1.104;-10.9;-4.6;26.2;61.65;8526;2018-04-16 22:31:34:696
1.117;-7.909;-4.368;-0.32;-9.446;-2.615;0.996;1.833;-0.376;0.437;-1.07;-0.739;-10.8;-4.6;26.1;61.65;8536;2018-04-16 22:31:34:706
-0.315;-6.756;-0.437;-0.32;-9.446;-2.615;0.996;1.833;-0.376;0.606;-1.043;-0.332;-10.8;-4.6;26.1;61.65;8546;2018-04-16 22:31:34:716
-0.315;-6.756;-0.437;-0.31;-9.478;-2.498;-1.011;3.364;2.597;0.606;-1.043;-0.332;-10.8;-4.6;26.1;61.65;8556;2018-04-16 22:31:34:726
-2.127;-6.134;0.074;-0.31;-9.478;-2.498;-1.011;3.364;2.597;0.575;-0.838;-0.022;-10.7;-4.5;26.1;61.65;8567;2018-04-16 22:31:34:737
-3.513;-8.381;1.167;-0.389;-9.5;-2.403;-3.125;1.119;3.57;0.369;-0.601;0.282;-10.6;-4.4;26.2;61.65;8576;2018-04-16 22:31:34:746
-3.513;-8.381;1.167;-0.389;-9.5;-2.403;-3.125;1.119;3.57;0.621;-0.473;0.607;-10.6;-4.4;26.2;61.65;8586;2018-04-16 22:31:34:756
-4.84;-15.344;0.394;-0.529;-9.524;-2.277;-4.311;-5.82;2.671;0.865;-0.381;0.821;-10.5;-4.3;26.3;61.65;8596;2018-04-16 22:31:34:766
-3.745;-19.648;-6.031;-0.529;-9.524;-2.277;-4.311;-5.82;2.671;0.652;0.138;0.794;-10.5;-4.3;26.3;61.65;8605;2018-04-16 22:31:34:775
-3.745;-19.648;-6.031;-0.656;-9.538;-2.181;-2.503;-10.025;-4.081;-0.226;1.378;0.335;-10.5;-4.1;26.4;61.65;8616;2018-04-16 22:31:34:786
-3.045;-16.269;-4.069;-0.656;-9.538;-2.181;-2.503;-10.025;-4.081;-0.819;2.546;-0.397;-10.5;-4.1;26.4;61.65;8626;2018-04-16 22:31:34:796
-4.098;-10.003;0.035;-0.474;-9.509;-2.351;-3.624;-0.494;2.386;-0.819;2.546;-0.397;-10.4;-3.8;26.6;61.65;8636;2018-04-16 22:31:34:806
-3.971;-4.495;2.11;-0.474;-9.509;-2.351;-3.624;-0.494;2.386;-0.425;2.787;-0.666;-10.4;-3.8;26.6;61.65;8646;2018-04-16 22:31:34:816
-3.971;-4.495;2.11;-0.242;-9.508;-2.391;-3.437;5.801;3.495;0.131;2.483;-0.507;-10.4;-3.5;26.6;61.65;8656;2018-04-16 22:31:34:826
-3.74;-2.871;-2.998;-0.242;-9.508;-2.391;-3.437;5.801;3.495;0.402;2.15;-0.331;-10.4;-3.5;26.6;61.65;8666;2018-04-16 22:31:34:836
-5.874;-4.428;-2.697;-0.149;-9.524;-2.332;-4.736;7.017;-5.275;0.483;1.158;-0.143;-10.5;-3.3;26.6;61.65;8675;2018-04-16 22:31:34:845
-5.874;-4.428;-2.697;-0.149;-9.524;-2.332;-4.736;7.017;-5.275;0.922;-0.982;0.384;-10.5;-3.3;26.6;61.65;8686;2018-04-16 22:31:34:856
-5.49;-6.894;3.673;-0.292;-9.569;-2.126;-5.198;2.675;5.799;0.922;-0.982;0.384;-10.6;-3.1;26.4;61.65;8696;2018-04-16 22:31:34:866
-4.889;-9.78;3.141;-0.292;-9.569;-2.126;-5.198;2.675;5.799;1.234;-0.222;1.018;-10.6;-3.1;26.4;61.65;8706;2018-04-16 22:31:34:876
-4.889;-9.78;3.141;-0.492;-9.609;-1.897;-4.394;-1.053;4.676;1.004;0.878;1.085;-10.7;-2.9;26.4;61.65;8716;2018-04-16 22:31:34:886
-4.727;-11.971;2.156;-0.492;-9.609;-1.897;-4.394;-1.053;4.676;0.606;1.517;0.968;-10.7;-2.9;26.4;61.65;8726;2018-04-16 22:31:34:896
-4.727;-11.971;2.156;-0.621;-9.62;-1.801;-3.609;-2.666;3.652;0.606;1.517;0.968;-10.9;-2.7;26.4;61.65;8736;2018-04-16 22:31:34:906
-3.463;-11.684;1.426;-0.621;-9.62;-1.801;-3.609;-2.666;3.652;0.15;1.655;0.743;-10.9;-2.7;26.4;61.65;8746;2018-04-16 22:31:34:916
-3.578;-10.391;0.472;-0.712;-9.618;-1.777;-3.045;-1.368;2.456;0.242;0.694;0.627;-11.1;-2.4;26.1;61.65;8756;2018-04-16 22:31:34:926
-3.578;-10.391;0.472;-0.712;-9.618;-1.777;-3.045;-1.368;2.456;0.264;-0.164;0.713;-11.1;-2.4;26.1;61.65;8766;2018-04-16 22:31:34:936
-2.534;-8.916;0.072;-0.892;-9.613;-1.723;-1.643;0.697;1.795;0.148;-0.782;0.886;-11.4;-2.2;26.0;61.65;8775;2018-04-16 22:31:34:945
-1.913;-8.307;0.037;-0.892;-9.613;-1.723;-1.643;0.697;1.795;-0.094;-1.556;0.962;-11.4;-2.2;26.0;61.65;8786;2018-04-16 22:31:34:956
-1.913;-8.307;0.037;-1.13;-9.59;-1.711;-0.61;1.21;1.704;-0.281;-1.728;0.997;-11.7;-1.9;25.8;61.65;8796;2018-04-16 22:31:34:966
-1.567;-8.875;-0.134;-1.13;-9.59;-1.711;-0.61;1.21;1.704;-0.487;-1.866;1.029;-11.7;-1.9;25.8;61.65;8806;2018-04-16 22:31:34:976
-1.567;-8.875;-0.134;-1.393;-9.548;-1.748;-0.308;-0.279;1.878;-0.487;-1.866;1.029;-11.7;-1.9;25.8;60.52;8816;2018-04-16 22:31:34:986
-1.62;-10.274;0.458;-1.393;-9.548;-1.748;-0.308;-0.279;1.878;-0.665;-1.906;1.102;-11.9;-1.6;25.7;60.52;8826;2018-04-16 22:31:34:996
-0.681;-11.048;0.936;-1.686;-9.486;-1.83;1.005;-1.562;2.766;-0.735;-1.823;1.194;-12.0;-1.2;25.7;60.52;8836;2018-04-16 22:31:35:006
0.633;-10.891;2.168;-1.686;-9.486;-1.83;1.005;-1.562;2.766;-0.398;-1.851;1.114;-12.0;-1.1;25.6;60.52;8848;2018-04-16 22:31:35:018
0.633;-10.891;2.168;-1.967;-9.461;-1.669;3.304;-0.914;3.718;1.125;-2.327;1.091;-12.0;-1.1;25.6;60.52;8856;2018-04-16 22:31:35:026
2.095;-10.086;1.034;-1.967;-9.461;-1.669;3.304;-0.914;3.718;2.323;-2.432;0.75;-12.0;-0.7;25.7;60.52;8866;2018-04-16 22:31:35:036
2.095;-10.086;1.034;-2.098;-9.515;-1.106;3.219;-0.757;1.146;2.486;-2.002;-0.054;-12.0;-0.7;25.7;60.52;8876;2018-04-16 22:31:35:046
-0.244;-10.277;-0.079;-2.098;-9.515;-1.106;3.219;-0.757;1.146;2.486;-2.002;-0.054;-11.9;-0.4;25.7;60.52;8886;2018-04-16 22:31:35:056
-0.244;-10.277;-0.079;-2.086;-9.562;-0.62;1.669;0.104;0.496;2.059;-1.401;-0.13;-11.9;-0.4;25.7;60.52;8896;2018-04-16 22:31:35:066
-0.044;-8.481;0.016;-2.086;-9.562;-0.62;1.669;0.104;0.496;1.608;-0.676;0.05;-11.4;0.4;25.9;60.52;8906;2018-04-16 22:31:35:076
0.781;-7.705;-0.145;-2.099;-9.575;-0.29;2.693;1.795;0.261;1.284;-0.031;0.068;-11.4;0.4;25.9;60.52;8916;2018-04-16 22:31:35:086
0.781;-7.705;-0.145;-2.099;-9.575;-0.29;2.693;1.795;0.261;0.944;0.552;-0.024;-10.5;1.3;26.1;60.52;8926;2018-04-16 22:31:35:096
0.622;-8.109;-0.486;-2.091;-9.58;-0.133;2.713;1.471;-0.353;0.65;0.899;-0.127;-10.5;1.3;26.1;60.52;8936;2018-04-16 22:31:35:106
0.622;-8.109;-0.486;-2.091;-9.58;-0.133;2.713;1.471;-0.353;0.65;0.899;-0.127;-10.1;2.8;26.2;60.52;8946;2018-04-16 22:31:35:116
-0.129;-9.187;-0.488;-2.055;-9.589;-0.089;2.233;0.829;-0.453;0.393;1.007;-0.139;-10.1;2.8;26.2;60.52;8956;2018-04-16 22:31:35:126
-0.526;-9.431;-0.302;-2.055;-9.589;-0.089;2.233;0.829;-0.453;0.365;0.865;-0.121;-10.0;3.7;27.0;60.52;8966;2018-04-16 22:31:35:136
-0.526;-9.431;-0.302;-2.016;-9.597;-0.055;1.372;0.123;-0.223;0.365;0.865;-0.121;-10.0;3.7;27.0;60.52;8976;2018-04-16 22:31:35:146
-1.111;-9.645;-0.396;-2.016;-9.597;-0.055;1.372;0.123;-0.223;0.599;0.595;-0.213;-9.9;3.5;26.1;60.52;8986;2018-04-16 22:31:35:156
-1.804;-9.789;-0.626;-1.963;-9.608;0.058;0.353;-0.182;-0.617;0.798;0.326;-0.276;-10.2;3.7;26.3;60.52;8996;2018-04-16 22:31:35:166
-1.804;-9.789;-0.626;-1.963;-9.608;0.058;0.353;-0.182;-0.617;0.938;0.04;-0.283;-10.2;3.7;26.3;60.52;9006;2018-04-16 22:31:35:176
-2.116;-9.65;-0.763;-1.913;-9.615;0.241;-0.204;-0.035;-1.004;0.938;0.04;-0.283;-10.0;4.4;26.1;60.52;9016;2018-04-16 22:31:35:186
-2.433;-9.339;-0.661;-1.913;-9.615;0.241;-0.204;-0.035;-1.004;1.001;-0.426;-0.233;-10.0;4.4;26.1;60.52;9026;2018-04-16 22:31:35:196
-2.433;-9.339;-0.661;-1.874;-9.616;0.441;-0.628;0.35;-1.049;0.959;-0.567;-0.204;-9.7;4.6;26.5;60.52;9035;2018-04-16 22:31:35:205
-2.753;-9.169;-0.451;-1.874;-9.616;0.441;-0.628;0.35;-1.049;0.864;-0.584;-0.119;-9.7;4.6;26.5;60.52;9046;2018-04-16 22:31:35:216
-3.256;-9.169;-0.283;-1.856;-9.609;0.621;-1.259;0.449;-0.945;0.841;-0.485;-0.054;-9.8;4.6;26.4;60.52;9056;2018-04-16 22:31:35:226
-3.256;-9.169;-0.283;-1.856;-9.609;0.621;-1.259;0.449;-0.945;0.848;-0.345;0.006;-9.8;4.6;26.4;60.52;9066;2018-04-16 22:31:35:236
-3.458;-9.227;-0.101;-1.868;-9.594;0.791;-1.59;0.367;-0.891;0.896;-0.166;0.04;-9.3;5.0;26.4;60.52;9076;2018-04-16 22:31:35:246
-3.567;-9.398;-0.044;-1.868;-9.594;0.791;-1.59;0.367;-0.891;0.942;0.055;0.105;-9.3;5.0;26.4;60.52;9086;2018-04-16 22:31:35:256
-3.567;-9.398;-0.044;-1.903;-9.572;0.962;-1.569;0.19;-1.045;0.947;0.176;0.144;-9.3;5.0;26.4;60.52;9096;2018-04-16 22:31:35:266
-3.244;-9.382;-0.219;-1.903;-9.572;0.962;-1.569;0.19;-1.045;0.903;0.406;0.215;-9.1;5.4;26.3;60.52;9106;2018-04-16 22:31:35:276
-2.512;-9.482;-0.5;-1.969;-9.544;1.095;-0.542;0.062;-1.596;0.903;0.406;0.215;-9.0;5.8;26.3;60.52;9116;2018-04-16 22:31:35:286
-2.512;-9.482;-0.5;-1.969;-9.544;1.095;-0.542;0.062;-1.596;0.759;0.677;0.316;-9.0;5.8;26.3;60.52;9126;2018-04-16 22:31:35:296
-1.097;-9.489;-0.916;-2.043;-9.518;1.187;0.946;0.028;-2.103;0.707;0.677;0.326;-8.8;6.1;26.3;60.02;9136;2018-04-16 22:31:35:306
-0.435;-9.583;-1.04;-2.043;-9.518;1.187;0.946;0.028;-2.103;0.632;0.551;0.261;-8.8;6.1;26.3;60.02;9145;2018-04-16 22:31:35:315
-0.435;-9.583;-1.04;-2.093;-9.497;1.26;1.771;-0.151;-2.317;0.55;0.446;0.215;-8.8;6.7;26.3;60.02;9156;2018-04-16 22:31:35:326
-0.104;-9.795;-1.046;-2.093;-9.497;1.26;1.771;-0.151;-2.317;0.406;0.349;0.184;-8.8;6.7;26.3;60.02;9166;2018-04-16 22:31:35:336
0.431;-9.944;-1.073;-2.121;-9.486;1.299;2.306;-0.413;-2.345;0.226;0.225;0.158;-8.8;7.4;26.1;60.02;9176;2018-04-16 22:31:35:346
0.431;-9.944;-1.073;-2.121;-9.486;1.299;2.306;-0.413;-2.345;0.226;0.225;0.158;-8.8;7.4;26.1;60.02;9186;2018-04-16 22:31:35:356
0.628;-10.236;-0.703;-2.13;-9.484;1.296;2.758;-0.752;-1.999;-0.018;-0.109;0.1;-8.9;7.9;25.9;60.02;9196;2018-04-16 22:31:35:366
0.773;-10.806;-0.268;-2.13;-9.484;1.296;2.758;-0.752;-1.999;-0.065;-0.441;0.045;-8.9;7.9;25.9;60.02;9206;2018-04-16 22:31:35:376
0.773;-10.806;-0.268;-2.123;-9.485;1.303;2.842;-1.606;-1.429;-0.006;-0.628;-0.068;-9.1;8.3;25.8;60.02;9215;2018-04-16 22:31:35:385
0.51;-11.522;0.187;-2.123;-9.485;1.303;2.842;-1.606;-1.429;0.05;-0.729;-0.184;-9.1;8.3;25.8;60.02;9226;2018-04-16 22:31:35:396
0.51;-11.522;0.187;-2.068;-9.492;1.344;2.414;-2.088;-0.843;0.05;-0.729;-0.184;-9.1;8.3;25.8;60.02;9236;2018-04-16 22:31:35:406
0.365;-11.538;0.591;-2.068;-9.492;1.344;2.414;-2.088;-0.843;0.097;-0.749;-0.257;-9.2;8.7;25.5;60.02;9246;2018-04-16 22:31:35:416
0.622;-11.443;0.593;-1.989;-9.502;1.39;2.611;-1.941;-0.797;0.087;-0.667;-0.338;-9.3;9.0;25.4;60.02;9256;2018-04-16 22:31:35:426
0.734;-11.73;0.485;-1.989;-9.502;1.39;2.611;-1.941;-0.797;0.0;-0.575;-0.408;-9.3;9.0;25.4;60.02;9266;2018-04-16 22:31:35:436
0.539;-12.286;0.4;-1.888;-9.521;1.399;2.57;-2.418;-0.94;-0.108;-0.501;-0.48;-9.4;9.3;25.3;60.02;9278;2018-04-16 22:31:35:448
0.539;-12.286;0.4;-1.888;-9.521;1.399;2.57;-2.418;-0.94;-0.108;-0.501;-0.48;-9.4;9.3;25.3;60.02;9286;2018-04-16 22:31:35:456
0.144;-13.114;0.043;-1.766;-9.548;1.376;1.785;-3.7;-1.501;-0.211;-0.478;-0.563;-9.4;9.5;25.2;60.02;9296;2018-04-16 22:31:35:466
-0.942;-12.907;-0.77;-1.766;-9.548;1.376;1.785;-3.7;-1.501;-0.282;-0.491;-0.644;-9.4;9.8;25.1;60.02;9306;2018-04-16 22:31:35:476
-0.942;-12.907;-0.77;-1.62;-9.581;1.323;0.39;-3.126;-2.159;-0.415;-0.393;-0.759;-9.4;9.8;25.1;60.02;9316;2018-04-16 22:31:35:486
-1.917;-12.092;-0.766;-1.62;-9.581;1.323;0.39;-3.126;-2.159;-0.968;0.188;-0.976;-9.5;10.0;25.1;60.02;9326;2018-04-16 22:31:35:496
-2.635;-11.402;-0.309;-1.439;-9.633;1.146;-1.196;-1.77;-1.455;-0.968;0.188;-0.976;-9.5;10.0;25.1;60.02;9336;2018-04-16 22:31:35:506
-3.639;-10.52;-0.08;-1.439;-9.633;1.146;-1.196;-1.77;-1.455;-1.428;0.756;-1.001;-9.5;10.1;25.0;60.02;9345;2018-04-16 22:31:35:515
-4.351;-10.019;-0.6;-1.271;-9.689;0.819;-2.657;-0.557;-1.03;-1.675;1.036;-0.933;-9.5;10.2;25.0;60.02;9356;2018-04-16 22:31:35:526
