sep=;
acc_x;acc_y;acc_z;grav_x;grav_y;grav_z;lin_acc_x;lin_acc_y;lin_acc_z;gyro_x;gyro_y;gyro_z;mag_x;mag_y;mag_z;sound_lvl;time_ms;date_time
-1.511;1.604;11.228;0.085;2.261;9.542;-1.096;-0.208;-0.289;-0.572;-0.649;-0.156;-6.4;-32.1;3.8;51.36;11;2018-04-16 23:31:20:317
-1.511;1.604;11.228;0.188;2.149;9.567;-1.73;-0.633;2.032;-0.601;-0.513;-0.194;-6.4;-32.1;3.8;51.36;21;2018-04-16 23:31:20:327
-2.452;1.111;13.278;0.223;2.108;9.575;-2.675;-0.997;3.703;-0.428;-0.419;-0.239;-6.9;-32.2;3.1;51.36;30;2018-04-16 23:31:20:336
-2.452;1.111;13.278;0.223;2.108;9.575;-2.675;-0.997;3.703;-0.428;-0.419;-0.239;-6.9;-32.2;3.1;51.36;40;2018-04-16 23:31:20:346
-2.424;0.907;12.661;0.264;2.122;9.571;-2.777;-1.153;2.162;0.097;-0.265;-0.103;-7.0;-32.1;3.2;51.36;50;2018-04-16 23:31:20:356
-2.424;0.907;12.661;0.264;2.122;9.571;-2.777;-1.153;2.162;0.097;-0.265;-0.103;-7.0;-32.1;3.2;51.36;60;2018-04-16 23:31:20:366
-2.763;1.749;8.944;0.244;2.172;9.56;-2.932;-0.192;-1.211;0.305;0.062;0.04;-6.5;-32.2;3.6;51.36;71;2018-04-16 23:31:20:377
-2.312;2.265;7.355;0.245;2.175;9.559;-2.556;0.09;-2.204;0.035;0.016;0.105;-6.5;-32.2;3.6;51.36;81;2018-04-16 23:31:20:387
-2.312;2.265;7.355;0.245;2.175;9.559;-2.556;0.09;-2.204;0.035;0.016;0.105;-6.1;-32.2;3.8;51.36;91;2018-04-16 23:31:20:397
-2.093;2.181;7.298;0.285;2.117;9.571;-2.344;-0.048;-2.164;-0.4;-0.291;0.007;-5.9;-32.3;3.9;51.36;101;2018-04-16 23:31:20:407
-1.798;1.834;8.019;0.285;2.117;9.571;-2.344;-0.048;-2.164;-0.397;-0.876;-0.06;-5.9;-32.3;3.9;51.36;111;2018-04-16 23:31:20:417
0.152;2.283;8.705;0.507;2.067;9.573;-1.623;-0.274;-0.747;-0.12;-1.521;-0.109;-5.7;-32.3;3.7;51.36;120;2018-04-16 23:31:20:426
0.152;2.283;8.705;0.723;2.104;9.551;0.245;0.426;-0.826;0.359;-2.292;-0.252;-5.7;-32.3;3.7;51.36;130;2018-04-16 23:31:20:436
0.991;2.358;8.156;0.723;2.104;9.551;0.245;0.426;-0.826;0.359;-2.292;-0.252;-5.7;-32.3;3.7;51.36;140;2018-04-16 23:31:20:446
1.395;2.218;7.357;1.339;2.311;9.436;0.392;-0.143;-2.493;1.069;-3.414;-0.568;-5.5;-32.4;3.5;51.36;150;2018-04-16 23:31:20:456
1.634;1.34;5.259;1.339;2.311;9.436;0.392;-0.143;-2.493;1.084;-3.996;-0.968;-5.3;-32.4;3.5;51.36;161;2018-04-16 23:31:20:467
1.634;1.34;5.259;2.04;2.545;9.248;-0.781;-1.458;-4.026;1.084;-3.996;-0.968;-5.3;-32.4;3.5;51.36;171;2018-04-16 23:31:20:477
0.626;0.085;5.847;2.388;2.642;9.137;-1.762;-2.557;-3.29;0.825;-4.094;-0.997;-5.0;-32.4;3.6;51.36;181;2018-04-16 23:31:20:487
0.626;0.085;5.847;2.388;2.642;9.137;-1.762;-2.557;-3.29;0.825;-4.094;-0.997;-5.0;-32.4;3.6;51.36;191;2018-04-16 23:31:20:497
0.626;0.085;5.847;2.388;2.642;9.137;-1.762;-2.557;-3.29;0.825;-4.094;-0.997;-5.0;-32.4;3.6;51.36;200;2018-04-16 23:31:20:506
0.626;0.085;5.847;2.388;2.642;9.137;-1.762;-2.557;-3.29;0.825;-4.094;-0.997;-5.0;-32.4;3.6;51.36;210;2018-04-16 23:31:20:516
-1.554;-1.754;5.565;3.057;2.82;8.881;-5.982;-4.464;-2.813;0.766;-3.944;-0.803;-4.8;-32.4;3.6;51.36;221;2018-04-16 23:31:20:527
0.67;-2.54;4.252;3.057;2.82;8.881;-5.982;-4.464;-2.813;2.02;-4.293;1.708;-4.0;-32.3;4.0;51.36;231;2018-04-16 23:31:20:537
0.67;-2.54;4.252;4.542;3.149;8.1;-3.872;-5.69;-3.848;2.02;-4.293;1.708;-4.0;-32.3;4.0;51.36;240;2018-04-16 23:31:20:546
0.67;-2.54;4.252;4.542;3.149;8.1;-3.872;-5.69;-3.848;2.02;-4.293;1.708;-4.0;-32.3;4.0;51.36;252;2018-04-16 23:31:20:558
1.547;-2.913;2.877;5.014;3.276;7.765;-3.468;-6.188;-4.888;2.573;-4.84;1.934;-3.8;-32.2;4.1;51.17;263;2018-04-16 23:31:20:569
0.877;-3.818;-0.368;6.008;3.487;6.922;-5.131;-7.304;-7.29;3.282;-5.78;2.508;-3.3;-32.1;4.4;51.17;270;2018-04-16 23:31:20:576
0.877;-3.818;-0.368;6.008;3.487;6.922;-5.131;-7.304;-7.29;3.035;-5.806;3.13;-3.3;-32.1;4.4;51.17;280;2018-04-16 23:31:20:586
0.206;-4.97;-2.288;6.976;3.466;5.958;-6.77;-8.436;-8.246;2.627;-5.723;3.658;-3.0;-32.1;4.7;51.17;294;2018-04-16 23:31:20:600
0.206;-4.97;-2.288;6.976;3.466;5.958;-6.77;-8.436;-8.246;2.627;-5.723;3.658;-3.0;-32.1;4.7;51.17;305;2018-04-16 23:31:20:611
0.206;-4.97;-2.288;6.976;3.466;5.958;-6.77;-8.436;-8.246;2.627;-5.723;3.658;-3.0;-32.1;4.7;51.17;311;2018-04-16 23:31:20:617
-0.547;-6.367;-3.339;7.872;3.042;4.995;-8.419;-9.41;-8.333;2.006;-5.597;4.285;-2.8;-32.0;4.8;51.17;321;2018-04-16 23:31:20:627
-0.547;-6.367;-3.339;7.872;3.042;4.995;-8.419;-9.41;-8.333;0.836;-5.316;5.52;-2.8;-32.0;4.8;51.17;331;2018-04-16 23:31:20:637
6.449;-7.615;-3.418;8.655;2.101;4.104;-2.206;-9.716;-7.522;-0.028;-5.054;6.133;-2.7;-31.5;6.1;51.17;341;2018-04-16 23:31:20:647
10.142;-8.638;-0.928;9.2;0.862;3.284;0.942;-9.5;-4.212;-1.528;-4.709;6.474;-2.9;-31.1;7.1;51.17;350;2018-04-16 23:31:20:656
10.142;-8.638;-0.928;9.2;0.862;3.284;0.942;-9.5;-4.212;-1.528;-4.709;6.474;-2.9;-31.1;7.1;51.17;361;2018-04-16 23:31:20:667
12.731;-9.834;3.136;9.518;-0.433;2.323;3.214;-9.401;0.813;-1.825;-5.411;6.294;-3.2;-31.3;6.9;51.17;370;2018-04-16 23:31:20:676
14.523;-10.822;7.315;9.518;-0.433;2.323;3.214;-9.401;0.813;-1.469;-5.825;6.25;-3.2;-31.3;6.9;51.17;381;2018-04-16 23:31:20:687
15.526;-11.769;9.199;9.586;-1.685;1.202;5.672;-9.773;7.668;-0.672;-5.337;6.45;-3.9;-31.0;7.0;51.17;390;2018-04-16 23:31:20:696
15.526;-11.769;9.199;9.503;-2.311;0.727;6.299;-9.714;8.518;-0.58;-4.34;6.599;-4.9;-30.2;7.6;51.17;401;2018-04-16 23:31:20:707
15.526;-11.769;9.199;9.503;-2.311;0.727;6.299;-9.714;8.518;-0.58;-4.34;6.599;-4.9;-30.2;7.6;51.17;410;2018-04-16 23:31:20:716
16.911;-11.849;8.718;9.347;-2.944;0.354;7.564;-8.905;8.364;-0.63;-3.756;6.647;-5.6;-30.1;8.7;51.17;420;2018-04-16 23:31:20:726
16.911;-11.849;8.718;9.347;-2.944;0.354;7.564;-8.905;8.364;-0.872;-2.105;6.465;-5.6;-30.1;8.7;51.17;430;2018-04-16 23:31:20:736
20.144;-9.158;7.903;8.898;-4.122;-0.1;11.246;-5.036;8.003;-0.943;-1.047;5.764;-8.0;-29.1;7.6;51.17;440;2018-04-16 23:31:20:746
21.844;-6.503;8.249;8.395;-5.059;-0.319;13.87;-0.7;8.708;-0.919;-0.775;5.449;-9.1;-28.3;7.8;51.17;450;2018-04-16 23:31:20:756
21.844;-6.503;8.249;8.395;-5.059;-0.319;13.87;-0.7;8.708;-0.919;-0.775;5.449;-9.1;-28.3;7.8;51.17;460;2018-04-16 23:31:20:766
23.347;-4.733;8.673;7.951;-5.728;-0.372;15.584;0.79;9.348;-0.754;0.17;4.125;-12.1;-28.4;7.2;51.17;470;2018-04-16 23:31:20:776
23.311;-5.792;9.141;7.951;-5.728;-0.372;15.584;0.79;9.348;-0.742;1.025;3.148;-12.1;-28.4;7.2;51.17;480;2018-04-16 23:31:20:786
21.542;-6.334;7.725;7.624;-6.163;-0.247;14.796;-0.272;8.576;-0.825;2.057;2.231;-15.1;-26.9;7.7;51.17;490;2018-04-16 23:31:20:796
21.542;-6.334;7.725;7.624;-6.163;-0.247;14.796;-0.272;8.576;-0.825;2.057;2.231;-15.1;-26.9;7.7;51.17;501;2018-04-16 23:31:20:807
19.865;-5.623;7.202;7.412;-6.421;0.011;11.835;1.044;7.005;-0.876;2.468;1.724;-16.7;-25.0;6.6;51.17;511;2018-04-16 23:31:20:817
18.268;-5.057;6.88;7.412;-6.421;0.011;11.835;1.044;7.005;-0.793;2.599;1.34;-18.3;-25.2;7.4;51.17;521;2018-04-16 23:31:20:827
18.268;-5.057;6.88;7.412;-6.421;0.011;11.835;1.044;7.005;-0.793;2.599;1.34;-18.3;-25.2;7.4;51.17;531;2018-04-16 23:31:20:837
17.244;-4.679;7.463;7.258;-6.588;0.286;9.986;1.909;7.177;-0.397;2.183;1.058;-19.4;-25.0;4.0;51.17;540;2018-04-16 23:31:20:846
17.326;-5.004;7.936;7.132;-6.708;0.546;10.193;1.704;7.389;0.497;1.376;0.772;-20.5;-24.7;5.4;51.17;550;2018-04-16 23:31:20:856
17.326;-5.004;7.936;7.132;-6.708;0.546;10.193;1.704;7.389;0.497;1.376;0.772;-20.5;-24.7;5.4;51.17;560;2018-04-16 23:31:20:866
17.108;-4.751;7.857;7.054;-6.758;0.864;10.113;2.318;6.985;1.079;1.2;0.472;-20.6;-23.9;4.8;50.53;570;2018-04-16 23:31:20:876
17.056;-3.846;7.05;7.054;-6.758;0.864;10.113;2.318;6.985;1.372;1.624;0.046;-21.3;-24.3;3.6;50.53;580;2018-04-16 23:31:20:886
15.556;-4.29;6.212;7.028;-6.712;1.316;9.077;2.576;4.388;1.389;2.132;-0.421;-21.3;-24.3;3.6;50.53;590;2018-04-16 23:31:20:896
15.556;-4.29;6.212;7.028;-6.712;1.316;9.077;2.576;4.388;1.389;2.132;-0.421;-21.3;-24.3;3.6;50.53;600;2018-04-16 23:31:20:906
14.626;-4.64;5.083;7.052;-6.565;1.829;6.838;1.761;2.112;1.565;2.173;-0.706;-21.8;-23.8;3.0;50.53;610;2018-04-16 23:31:20:916
13.129;-4.61;2.571;7.052;-6.565;1.829;6.838;1.761;2.112;1.804;2.126;-0.855;-21.5;-24.1;5.8;50.53;620;2018-04-16 23:31:20:926
13.129;-4.61;2.571;7.052;-6.565;1.829;6.838;1.761;2.112;1.804;2.126;-0.855;-21.5;-24.1;5.8;50.53;630;2018-04-16 23:31:20:936
11.92;-3.948;1.835;7.108;-6.35;2.306;4.811;2.402;-0.471;1.905;1.4;-1.016;-21.7;-23.1;3.8;50.53;640;2018-04-16 23:31:20:946
10.737;-5.143;4.806;7.221;-6.104;2.601;3.516;0.962;2.205;2.016;-0.177;-1.01;-21.7;-23.1;3.8;50.53;650;2018-04-16 23:31:20:956
10.737;-5.143;4.806;7.221;-6.104;2.601;3.516;0.962;2.205;2.016;-0.177;-1.01;-21.6;-23.8;5.7;50.53;660;2018-04-16 23:31:20:966
7.997;-6.126;-4.233;7.416;-5.861;2.611;-0.14;0.097;-8.368;2.628;-2.083;-0.749;-21.2;-23.6;4.9;50.53;671;2018-04-16 23:31:20:977
6.722;-5.253;-3.34;7.536;-5.791;2.417;-0.814;0.538;-5.757;1.965;-3.957;-0.318;-21.2;-24.2;5.4;50.53;680;2018-04-16 23:31:20:986
5.027;-4.899;0.066;7.536;-5.791;2.417;-0.814;0.538;-5.757;2.222;-5.01;0.188;-21.2;-24.2;5.4;50.53;691;2018-04-16 23:31:20:997
5.027;-4.899;0.066;7.718;-5.733;1.93;-1.367;0.552;-1.34;2.303;-4.889;0.574;-20.4;-22.9;6.7;50.53;701;2018-04-16 23:31:21:007
8.612;-5.233;-0.128;7.718;-5.733;1.93;-1.367;0.552;-1.34;2.303;-4.889;0.574;-20.4;-22.9;6.7;50.53;710;2018-04-16 23:31:21:016
9.765;-2.97;2.297;7.828;-5.735;1.416;2.024;2.076;0.19;2.379;-5.023;0.573;-20.3;-23.8;6.6;50.53;720;2018-04-16 23:31:21:026
9.765;-2.97;2.297;7.828;-5.735;1.416;2.024;2.076;0.19;2.379;-5.023;0.573;-20.3;-23.8;6.6;50.53;730;2018-04-16 23:31:21:036
9.765;-2.97;2.297;7.828;-5.735;1.416;2.024;2.076;0.19;2.379;-5.023;0.573;-20.3;-23.8;6.6;50.53;741;2018-04-16 23:31:21:047
9.765;-2.97;2.297;7.828;-5.735;1.416;2.024;2.076;0.19;2.379;-5.023;0.573;-20.3;-23.8;6.6;50.53;751;2018-04-16 23:31:21:057
9.765;-2.97;2.297;7.828;-5.735;1.416;2.024;2.076;0.19;2.379;-5.023;0.573;-20.3;-23.8;6.6;50.53;760;2018-04-16 23:31:21:066
9.765;-2.97;2.297;7.828;-5.735;1.416;2.024;2.076;0.19;2.379;-5.023;0.573;-20.3;-23.8;6.6;50.53;771;2018-04-16 23:31:21:077
9.765;-2.97;2.297;7.828;-5.735;1.416;2.024;2.076;0.19;2.379;-5.023;0.573;-20.3;-23.8;6.6;50.53;780;2018-04-16 23:31:21:086
9.765;-2.97;2.297;7.828;-5.735;1.416;2.024;2.076;0.19;2.379;-5.023;0.573;-20.3;-23.8;6.6;50.53;790;2018-04-16 23:31:21:096
9.765;-2.97;2.297;7.828;-5.735;1.416;2.024;2.076;0.19;2.379;-5.023;0.573;-20.3;-23.8;6.6;50.53;800;2018-04-16 23:31:21:106
9.765;-2.97;2.297;7.828;-5.735;1.416;2.024;2.076;0.19;2.379;-5.023;0.573;-20.3;-23.8;6.6;50.53;810;2018-04-16 23:31:21:116
9.765;-2.97;2.297;7.828;-5.735;1.416;2.024;2.076;0.19;2.379;-5.023;0.573;-20.3;-23.8;6.6;50.53;821;2018-04-16 23:31:21:127
9.765;-2.97;2.297;7.828;-5.735;1.416;2.024;2.076;0.19;2.379;-5.023;0.573;-20.3;-23.8;6.6;50.53;831;2018-04-16 23:31:21:137
9.765;-2.97;2.297;7.828;-5.735;1.416;2.024;2.076;0.19;2.379;-5.023;0.573;-20.3;-23.8;6.6;50.53;840;2018-04-16 23:31:21:146
9.765;-2.97;2.297;7.828;-5.735;1.416;2.024;2.076;0.19;2.379;-5.023;0.573;-20.3;-23.8;6.6;50.53;850;2018-04-16 23:31:21:156
9.765;-2.97;2.297;7.828;-5.735;1.416;2.024;2.076;0.19;2.379;-5.023;0.573;-20.3;-23.8;6.6;50.53;860;2018-04-16 23:31:21:166
9.765;-2.97;2.297;7.828;-5.735;1.416;2.024;2.076;0.19;2.379;-5.023;0.573;-20.3;-23.8;6.6;50.53;871;2018-04-16 23:31:21:177
9.765;-2.97;2.297;7.828;-5.735;1.416;2.024;2.076;0.19;2.379;-5.023;0.573;-20.3;-23.8;6.6;50.53;880;2018-04-16 23:31:21:186
9.765;-2.97;2.297;7.828;-5.735;1.416;2.024;2.076;0.19;2.379;-5.023;0.573;-20.3;-23.8;6.6;50.53;891;2018-04-16 23:31:21:197
9.765;-2.97;2.297;7.828;-5.735;1.416;2.024;2.076;0.19;2.379;-5.023;0.573;-20.3;-23.8;6.6;50.53;900;2018-04-16 23:31:21:206
9.765;-2.97;2.297;7.828;-5.735;1.416;2.024;2.076;0.19;2.379;-5.023;0.573;-20.3;-23.8;6.6;50.53;910;2018-04-16 23:31:21:216
9.765;-2.97;2.297;7.828;-5.735;1.416;2.024;2.076;0.19;2.379;-5.023;0.573;-20.3;-23.8;6.6;50.53;921;2018-04-16 23:31:21:227
9.487;-2.575;1.816;7.895;-5.698;1.172;1.87;2.728;1.125;2.821;-5.132;0.147;-20.0;-22.9;7.1;50.53;930;2018-04-16 23:31:21:236
12.957;-0.031;-0.91;8.425;-4.842;-1.322;4.532;4.81;0.412;-0.347;-0.836;0.875;-20.0;-22.9;7.1;50.53;941;2018-04-16 23:31:21:247
12.957;-0.031;-0.91;8.425;-4.842;-1.322;4.532;4.81;0.412;-0.347;-0.836;0.875;-7.2;-16.1;21.2;50.53;950;2018-04-16 23:31:21:256
18.289;-4.639;3.326;8.359;-4.875;-1.59;9.93;0.236;4.915;-0.294;-1.487;0.275;-7.2;-16.1;21.2;50.53;961;2018-04-16 23:31:21:267
18.289;-4.639;3.326;8.359;-4.875;-1.59;9.93;0.236;4.915;-0.013;-1.415;-0.313;-6.4;-16.6;22.7;50.53;971;2018-04-16 23:31:21:277
16.04;-5.377;5.61;8.366;-4.827;-1.696;7.674;-0.551;7.306;0.232;-1.409;-0.613;-6.6;-17.4;20.2;50.53;981;2018-04-16 23:31:21:287
9.262;-3.57;5.104;8.366;-4.827;-1.696;7.674;-0.551;7.306;1.403;-1.379;-0.982;-5.7;-16.6;21.0;50.53;990;2018-04-16 23:31:21:296
9.262;-3.57;5.104;8.431;-4.665;-1.822;0.105;1.279;6.075;1.79;-1.241;-0.817;-5.7;-16.6;21.0;50.53;1000;2018-04-16 23:31:21:306
6.871;-3.274;1.092;8.431;-4.665;-1.822;0.105;1.279;6.075;1.829;-0.92;-0.573;-5.1;-15.6;22.0;49.83;1010;2018-04-16 23:31:21:316
6.433;-4.019;-1.083;8.448;-4.647;-1.791;-1.72;1.561;1.052;1.464;-0.522;-0.345;-5.1;-15.6;22.0;49.83;1020;2018-04-16 23:31:21:326
6.433;-4.019;-1.083;8.448;-4.647;-1.791;-1.72;1.561;1.052;0.823;0.153;-0.103;-5.2;-15.2;21.5;49.83;1030;2018-04-16 23:31:21:336
5.977;-6.194;-2.837;8.453;-4.688;-1.655;-2.476;-1.506;-1.182;-0.046;1.062;0.365;-5.2;-15.2;21.5;49.83;1041;2018-04-16 23:31:21:347
9.749;-6.067;0.166;8.453;-4.688;-1.655;-2.476;-1.506;-1.182;-0.918;1.901;0.848;-5.7;-15.2;22.5;49.83;1051;2018-04-16 23:31:21:357
9.749;-6.067;0.166;8.43;-4.813;-1.392;1.894;-1.37;1.991;-1.371;2.451;1.01;-6.2;-15.5;22.1;49.83;1061;2018-04-16 23:31:21:367
10.77;-6.185;0.141;8.43;-4.813;-1.392;1.894;-1.37;1.991;-1.477;2.578;0.848;-6.2;-15.5;22.1;49.83;1071;2018-04-16 23:31:21:377
10.969;-6.782;-2.307;8.422;-4.896;-1.13;2.547;-1.886;-1.177;-1.475;2.238;0.571;-6.4;-16.0;22.2;49.83;1081;2018-04-16 23:31:21:387
9.038;-7.89;-2.953;8.422;-4.896;-1.13;2.547;-1.886;-1.177;-1.381;1.57;0.303;-6.4;-16.0;22.2;49.83;1091;2018-04-16 23:31:21:397
9.038;-7.89;-2.953;8.422;-4.913;-1.051;0.098;-2.776;-1.683;-1.175;0.858;0.232;-6.4;-16.0;22.2;49.83;1101;2018-04-16 23:31:21:407
8.143;-7.287;-2.452;8.422;-4.913;-1.051;0.098;-2.776;-1.683;-0.865;0.38;0.373;-6.3;-15.9;22.0;49.83;1110;2018-04-16 23:31:21:416
8.198;-6.305;-1.988;8.384;-4.974;-1.063;-0.187;-1.331;-0.926;-0.494;0.401;0.562;-6.0;-15.8;22.3;49.83;1121;2018-04-16 23:31:21:427
8.663;-5.334;-2.585;8.384;-4.974;-1.063;-0.187;-1.331;-0.926;-0.494;0.401;0.562;-6.0;-15.8;22.3;49.83;1130;2018-04-16 23:31:21:436
8.663;-5.334;-2.585;8.335;-5.061;-1.037;-0.169;0.409;-1.601;-0.673;0.632;0.616;-5.9;-15.8;22.7;49.83;1141;2018-04-16 23:31:21:447
6.171;-3.015;-1.221;8.335;-5.061;-1.037;-0.169;0.409;-1.601;-1.036;0.512;0.812;-5.9;-15.8;22.7;49.83;1151;2018-04-16 23:31:21:457
5.865;-2.85;0.043;8.234;-5.21;-1.108;-2.358;2.387;0.952;-1.257;0.049;1.279;-5.8;-15.8;22.9;49.83;1161;2018-04-16 23:31:21:467
5.865;-2.85;0.043;8.234;-5.21;-1.108;-2.358;2.387;0.952;-1.122;-1.089;1.775;-5.8;-15.8;22.9;49.83;1171;2018-04-16 23:31:21:477
5.661;-2.373;0.133;8.019;-5.467;-1.404;-2.358;3.095;1.537;-1.122;-1.089;1.775;-5.8;-15.8;22.9;49.83;1180;2018-04-16 23:31:21:486
6.819;-3.148;1.933;8.019;-5.467;-1.404;-2.358;3.095;1.537;-0.552;-2.608;1.901;-5.8;-15.8;23.1;49.83;1191;2018-04-16 23:31:21:497
6.819;-3.148;1.933;7.716;-5.75;-1.89;-0.323;2.0;4.112;-0.222;-3.042;1.844;-5.8;-15.8;23.1;49.83;1201;2018-04-16 23:31:21:507
8.541;-6.304;3.633;7.716;-5.75;-1.89;-0.323;2.0;4.112;0.22;-3.048;1.819;-5.9;-15.9;23.2;49.83;1210;2018-04-16 23:31:21:516
7.977;-9.208;2.692;7.374;-6.094;-2.158;1.028;-2.472;5.749;1.396;-1.746;2.299;-5.9;-16.0;23.3;49.83;1221;2018-04-16 23:31:21:527
7.977;-9.208;2.692;7.374;-6.094;-2.158;1.028;-2.472;5.749;2.349;-0.881;3.045;-5.9;-16.0;23.3;49.83;1231;2018-04-16 23:31:21:537
6.697;-7.939;0.077;6.899;-6.699;-1.921;-0.203;-1.24;1.998;2.349;-0.881;3.045;-5.9;-16.0;23.3;49.83;1241;2018-04-16 23:31:21:547
6.697;-7.939;0.077;6.899;-6.699;-1.921;-0.203;-1.24;1.998;3.129;-0.638;4.233;-6.0;-16.1;23.4;49.83;1250;2018-04-16 23:31:21:556
5.813;-5.162;0.144;6.209;-7.429;-1.558;-0.623;2.617;2.074;3.157;-0.654;4.759;-6.0;-16.1;23.4;49.83;1261;2018-04-16 23:31:21:567
5.813;-5.162;0.144;6.209;-7.429;-1.558;-0.623;2.617;2.074;3.042;-0.363;5.109;-6.1;-15.9;23.5;49.83;1271;2018-04-16 23:31:21:577
4.808;-4.359;1.304;5.802;-7.793;-1.335;-0.995;3.434;2.639;2.965;-0.095;5.256;-6.1;-15.8;23.7;49.83;1280;2018-04-16 23:31:21:586
2.959;-5.947;-0.351;5.802;-7.793;-1.335;-0.995;3.434;2.639;2.759;0.968;6.054;-6.4;-15.4;24.0;49.83;1292;2018-04-16 23:31:21:598
2.959;-5.947;-0.351;4.307;-8.794;-0.532;-1.742;2.712;-0.46;2.759;0.968;6.054;-6.4;-15.4;24.0;49.83;1300;2018-04-16 23:31:21:606
2.403;-5.343;-1.658;4.307;-8.794;-0.532;-1.742;2.712;-0.46;2.68;0.706;6.971;-6.6;-15.2;24.1;50.55;1311;2018-04-16 23:31:21:617
2.642;-5.507;-0.534;2.971;-9.346;-0.048;-0.329;3.839;-0.485;2.552;-0.151;7.52;-8.0;-13.1;25.1;50.55;1321;2018-04-16 23:31:21:627
1.985;-3.159;-2.072;2.971;-9.346;-0.048;-0.329;3.839;-0.485;2.072;-0.25;7.538;-8.0;-13.1;25.1;50.55;1331;2018-04-16 23:31:21:637
1.985;-3.159;-2.072;1.561;-9.678;0.266;0.127;6.582;-1.602;1.475;-0.823;7.286;-9.9;-8.8;24.4;50.55;1340;2018-04-16 23:31:21:646
1.911;-2.267;-2.251;1.561;-9.678;0.266;0.127;6.582;-1.602;1.058;-1.195;7.081;-9.9;-8.8;24.4;50.55;1350;2018-04-16 23:31:21:656
1.396;-1.87;-1.312;0.232;-9.796;0.399;1.329;7.785;-2.009;0.564;-1.798;6.661;-10.5;-5.9;24.3;50.55;1360;2018-04-16 23:31:21:666
1.396;-1.87;-1.312;0.232;-9.796;0.399;1.329;7.785;-2.009;0.138;-2.276;6.267;-10.5;-5.9;24.3;50.55;1370;2018-04-16 23:31:21:676
1.049;-1.703;-1.809;-0.94;-9.753;0.416;1.989;8.049;-2.225;-0.153;-2.74;5.932;-8.9;-3.4;25.0;50.55;1380;2018-04-16 23:31:21:686
1.219;-1.311;-1.105;-0.94;-9.753;0.416;1.989;8.049;-2.225;-0.316;-3.466;5.624;-8.9;-3.4;25.0;50.55;1390;2018-04-16 23:31:21:696
1.219;-1.311;-1.105;-1.966;-9.596;0.465;3.146;8.123;-1.082;-0.358;-4.265;5.334;-8.0;-2.8;26.1;50.55;1400;2018-04-16 23:31:21:706
1.05;-1.914;0.813;-1.966;-9.596;0.465;3.146;8.123;-1.082;-0.303;-4.845;5.082;-8.0;-2.8;26.1;50.55;1410;2018-04-16 23:31:21:716
-15.526;-33.783;9.989;-2.861;-9.356;0.667;-4.982;-12.268;6.022;-0.098;-5.069;4.938;-5.9;-1.5;25.4;50.55;1420;2018-04-16 23:31:21:726
-15.526;-33.783;9.989;-2.861;-9.356;0.667;-4.982;-12.268;6.022;0.742;-3.653;8.09;-5.9;-1.5;25.4;50.55;1430;2018-04-16 23:31:21:736
-12.018;-39.185;7.488;-4.281;-8.766;1.001;-7.737;-30.419;6.487;-0.059;-0.584;10.723;-3.7;-0.8;24.4;50.55;1440;2018-04-16 23:31:21:746
-1.66;-27.855;5.558;-4.281;-8.766;1.001;-7.737;-30.419;6.487;-0.059;-0.584;10.723;-3.7;-0.8;24.4;50.55;1450;2018-04-16 23:31:21:756
-1.66;-27.855;5.558;-5.15;-8.333;0.464;-4.128;-19.93;11.887;-4.982;-0.601;0.977;-2.3;-1.4;25.3;50.55;1460;2018-04-16 23:31:21:766
-13.558;-22.002;10.624;-5.15;-8.333;0.464;-4.128;-19.93;11.887;-5.07;0.082;-2.625;-2.3;-1.4;25.3;50.55;1470;2018-04-16 23:31:21:776
-4.439;-7.201;-7.8;-4.749;-8.572;-0.361;-3.045;-3.659;4.014;-3.971;1.183;-2.084;-3.5;-4.0;23.1;50.55;1481;2018-04-16 23:31:21:787
-4.439;-7.201;-7.8;-4.749;-8.572;-0.361;-3.045;-3.659;4.014;-3.038;0.542;-1.348;-3.5;-4.0;23.1;50.55;1491;2018-04-16 23:31:21:797
-0.104;-1.185;-3.982;-4.626;-8.642;-0.281;4.522;7.457;-3.7;0.506;-7.15;-0.428;-2.3;-5.0;24.5;50.55;1500;2018-04-16 23:31:21:806
-2.326;-4.284;3.135;-4.626;-8.642;-0.281;4.522;7.457;-3.7;1.652;-8.991;-0.27;-2.3;-5.0;24.5;50.55;1510;2018-04-16 23:31:21:816
-2.326;-4.284;3.135;-4.539;-8.652;0.841;1.576;3.513;3.044;1.971;-8.584;-0.182;-2.3;-5.0;24.5;50.55;1520;2018-04-16 23:31:21:826
-3.524;-6.05;4.174;-4.539;-8.652;0.841;1.576;3.513;3.044;2.007;-7.459;-0.028;1.6;-4.4;25.1;50.55;1530;2018-04-16 23:31:21:836
-4.195;-7.417;3.877;-4.362;-8.6;1.783;0.167;1.183;2.095;1.842;-6.002;0.001;4.6;-3.6;23.4;50.55;1540;2018-04-16 23:31:21:846
-5.623;-10.179;-2.617;-4.362;-8.6;1.783;0.167;1.183;2.095;1.464;-3.713;-0.104;4.6;-3.6;23.4;50.55;1550;2018-04-16 23:31:21:856
-5.623;-10.179;-2.617;-4.196;-8.55;2.338;-1.54;-1.743;-5.36;1.464;-3.713;-0.104;4.6;-3.6;23.4;50.55;1561;2018-04-16 23:31:21:867
-5.707;-10.206;-3.116;-4.196;-8.55;2.338;-1.54;-1.743;-5.36;0.936;-1.703;-0.139;7.6;-1.9;22.3;50.55;1570;2018-04-16 23:31:21:876
-4.73;-9.351;-1.694;-4.206;-8.547;2.331;-0.524;-0.804;-4.025;-0.147;1.525;-0.032;8.8;-3.0;23.0;50.55;1581;2018-04-16 23:31:21:887
-3.589;-9.135;0.898;-4.206;-8.547;2.331;-0.524;-0.804;-4.025;-0.613;2.938;0.046;8.8;-3.0;23.0;50.55;1590;2018-04-16 23:31:21:896
-3.349;-9.03;1.815;-4.352;-8.579;1.905;0.907;-0.509;-0.551;-0.839;3.842;0.056;8.6;-1.9;23.0;50.55;1600;2018-04-16 23:31:21:906
-3.349;-9.03;1.815;-4.352;-8.579;1.905;0.907;-0.509;-0.551;-0.92;4.425;0.029;8.6;-1.9;23.0;64.56;1611;2018-04-16 23:31:21:917
-3.475;-9.279;1.889;-4.495;-8.612;1.344;1.019;-0.667;0.545;-0.909;4.773;0.0;8.6;-1.9;23.0;64.56;1620;2018-04-16 23:31:21:926
-3.336;-9.287;0.913;-4.495;-8.612;1.344;1.019;-0.667;0.545;-0.806;4.895;-0.002;5.7;-2.5;25.4;64.56;1631;2018-04-16 23:31:21:937
-3.336;-9.287;0.913;-4.586;-8.632;0.787;1.297;-0.629;-0.134;-0.602;4.704;0.01;5.7;-2.5;25.4;64.56;1640;2018-04-16 23:31:21:946
-3.315;-9.313;0.478;-4.586;-8.632;0.787;1.297;-0.629;-0.134;-0.27;4.096;0.021;4.3;-3.3;26.4;64.56;1651;2018-04-16 23:31:21:957
-3.116;-9.384;0.589;-4.623;-8.638;0.418;1.507;-0.746;0.171;0.016;3.445;0.028;1.8;-3.4;25.5;64.56;1661;2018-04-16 23:31:21:967
-3.305;-9.321;0.585;-4.623;-8.638;0.418;1.507;-0.746;0.171;0.186;2.968;-0.006;1.8;-3.4;25.5;64.56;1670;2018-04-16 23:31:21:976
-3.305;-9.321;0.585;-4.624;-8.645;0.203;1.255;-0.684;0.289;0.277;2.607;-0.035;1.8;-3.4;25.5;64.56;1681;2018-04-16 23:31:21:987
-3.438;-9.285;0.354;-4.624;-8.645;0.203;1.255;-0.684;0.289;0.324;2.23;-0.018;1.4;-2.5;27.7;64.56;1690;2018-04-16 23:31:21:996
-3.375;-9.081;0.115;-4.619;-8.65;0.075;1.245;-0.431;0.04;0.342;1.818;0.026;1.4;-2.5;27.7;64.56;1701;2018-04-16 23:31:22:007
-3.394;-9.052;0.043;-4.618;-8.651;0.04;1.224;-0.401;0.003;0.325;1.377;0.042;0.6;-3.0;25.4;64.56;1711;2018-04-16 23:31:22:017
-3.394;-9.052;0.043;-4.618;-8.651;0.04;1.224;-0.401;0.003;0.325;1.377;0.042;0.4;-2.7;26.5;64.56;1721;2018-04-16 23:31:22:027
-3.442;-9.213;0.192;-4.617;-8.652;0.012;1.184;-0.626;0.229;0.235;0.751;0.055;0.0;-3.5;25.6;64.56;1730;2018-04-16 23:31:22:036
-3.354;-9.401;0.383;-4.617;-8.652;0.012;1.184;-0.626;0.229;0.105;0.264;0.081;0.0;-3.5;25.6;64.56;1740;2018-04-16 23:31:22:046
-3.354;-9.401;0.383;-4.622;-8.649;0.013;1.409;-0.814;0.515;0.009;0.01;0.1;0.0;-3.5;25.6;64.56;1751;2018-04-16 23:31:22:057
-3.13;-9.44;0.626;-4.622;-8.649;0.013;1.409;-0.814;0.515;-0.089;-0.197;0.117;0.1;-3.1;26.2;64.56;1761;2018-04-16 23:31:22:067
-2.862;-9.231;0.898;-4.63;-8.645;0.024;1.697;-0.642;0.819;-0.244;-0.442;0.166;0.7;-2.8;26.5;64.56;1771;2018-04-16 23:31:22:077
-2.862;-9.231;0.898;-4.63;-8.645;0.024;1.697;-0.642;0.819;-0.244;-0.442;0.166;0.7;-2.8;26.5;64.56;1780;2018-04-16 23:31:22:086
-2.707;-9.146;1.024;-4.644;-8.637;0.028;1.937;-0.509;0.996;-0.301;-0.491;0.181;0.3;-3.1;25.3;64.56;1791;2018-04-16 23:31:22:097
-2.626;-9.252;1.168;-4.644;-8.637;0.028;1.937;-0.509;0.996;-0.348;-0.525;0.173;0.6;-3.2;25.2;64.56;1801;2018-04-16 23:31:22:107
-2.626;-9.252;1.168;-4.655;-8.631;0.03;2.038;-0.67;1.121;-0.348;-0.538;0.166;0.6;-3.2;25.2;64.56;1811;2018-04-16 23:31:22:117
-2.581;-9.418;1.068;-4.659;-8.629;0.033;2.078;-0.788;1.035;-0.329;-0.563;0.158;0.6;-3.2;25.2;64.56;1821;2018-04-16 23:31:22:127
-2.581;-9.418;1.068;-4.659;-8.629;0.033;2.078;-0.788;1.035;-0.301;-0.606;0.134;0.4;-3.3;25.2;64.56;1832;2018-04-16 23:31:22:138
-2.541;-9.555;0.875;-4.661;-8.628;0.052;2.119;-0.927;0.823;-0.301;-0.606;0.134;1.0;-3.1;26.6;64.56;1841;2018-04-16 23:31:22:147
-2.541;-9.555;0.875;-4.661;-8.628;0.052;2.119;-0.927;0.823;-0.242;-0.709;0.094;1.1;-3.4;26.5;64.56;1850;2018-04-16 23:31:22:156
-2.512;-9.36;0.709;-4.651;-8.633;0.1;2.14;-0.727;0.609;-0.167;-0.83;0.054;1.1;-3.4;26.5;64.56;1861;2018-04-16 23:31:22:167
-2.571;-9.187;0.643;-4.651;-8.633;0.1;2.14;-0.727;0.609;-0.115;-0.907;0.033;1.4;-2.7;26.5;64.56;1870;2018-04-16 23:31:22:176
-2.571;-9.187;0.643;-4.635;-8.64;0.178;2.032;-0.521;0.446;-0.028;-0.999;0.002;1.4;-2.7;26.5;64.56;1880;2018-04-16 23:31:22:186
-2.69;-9.146;0.567;-4.635;-8.64;0.178;2.032;-0.521;0.446;-0.028;-0.999;0.002;1.4;-2.7;26.5;64.56;1891;2018-04-16 23:31:22:197
-2.69;-9.146;0.567;-4.611;-8.651;0.283;1.755;-0.524;0.255;0.028;-1.047;-0.021;1.0;-3.1;26.3;64.56;1901;2018-04-16 23:31:22:207
-2.969;-9.22;0.528;-4.611;-8.651;0.283;1.755;-0.524;0.255;0.084;-1.091;-0.045;0.5;-3.2;26.4;64.56;1912;2018-04-16 23:31:22:218
-3.273;-9.243;-0.097;-4.578;-8.662;0.423;1.305;-0.581;-0.52;0.255;-1.289;-0.068;0.3;-3.2;26.5;64.4;1921;2018-04-16 23:31:22:227
-3.273;-9.243;-0.097;-4.578;-8.662;0.423;1.305;-0.581;-0.52;0.255;-1.289;-0.068;0.3;-3.2;26.5;64.4;1931;2018-04-16 23:31:22:237
-3.687;-9.267;0.394;-4.534;-8.668;0.689;0.847;-0.599;-0.295;0.615;-1.84;-0.092;0.1;-3.2;26.5;64.4;1941;2018-04-16 23:31:22:247
-3.869;-9.133;0.813;-4.534;-8.668;0.689;0.847;-0.599;-0.295;0.794;-1.935;-0.078;0.1;-3.2;26.5;64.4;1951;2018-04-16 23:31:22:257
-3.977;-9.061;0.697;-4.484;-8.665;0.991;0.572;-0.426;-0.205;0.793;-1.746;-0.081;0.2;-3.2;26.5;64.4;1960;2018-04-16 23:31:22:266
-3.977;-9.061;0.697;-4.484;-8.665;0.991;0.572;-0.426;-0.205;0.738;-1.462;-0.086;0.2;-3.2;26.5;64.4;1971;2018-04-16 23:31:22:277
-4.059;-8.972;0.383;-4.437;-8.659;1.222;0.378;-0.313;-0.839;0.618;-0.968;-0.064;0.4;-3.2;26.4;64.4;1980;2018-04-16 23:31:22:286
-3.971;-8.958;0.156;-4.421;-8.656;1.301;0.45;-0.301;-1.145;0.618;-0.968;-0.064;0.4;-3.2;26.4;64.4;1991;2018-04-16 23:31:22:297
-3.971;-8.958;0.156;-4.421;-8.656;1.301;0.45;-0.301;-1.145;0.453;-0.392;-0.033;0.4;-3.2;26.4;64.4;2000;2018-04-16 23:31:22:306
-3.717;-9.008;0.034;-4.406;-8.654;1.368;0.762;-0.392;-1.326;0.301;0.044;-0.02;0.8;-3.1;26.4;64.4;2010;2018-04-16 23:31:22:316
-3.439;-9.109;0.096;-4.406;-8.654;1.368;0.762;-0.392;-1.326;0.122;0.498;-0.005;1.2;-3.0;26.3;64.4;2021;2018-04-16 23:31:22:327
-3.235;-9.222;0.345;-4.416;-8.659;1.3;1.114;-0.521;-1.06;-0.18;1.21;0.015;1.2;-3.0;26.3;64.4;2030;2018-04-16 23:31:22:336
-3.235;-9.222;0.345;-4.416;-8.659;1.3;1.114;-0.521;-1.06;-0.258;1.405;0.013;1.6;-3.0;26.2;64.4;2041;2018-04-16 23:31:22:347
-3.081;-9.266;0.485;-4.438;-8.671;1.134;1.357;-0.595;-0.65;-0.258;1.405;0.013;1.6;-3.0;26.2;64.4;2050;2018-04-16 23:31:22:356
-2.992;-9.274;0.6;-4.438;-8.671;1.134;1.357;-0.595;-0.65;-0.308;1.526;0.01;1.9;-2.9;26.1;64.4;2061;2018-04-16 23:31:22:367
-2.992;-9.274;0.6;-4.457;-8.684;0.941;1.491;-0.596;-0.326;-0.309;1.528;0.004;1.9;-2.9;26.1;64.4;2070;2018-04-16 23:31:22:376
-2.942;-9.261;0.654;-4.463;-8.691;0.849;1.52;-0.57;-0.195;-0.304;1.481;-0.004;1.9;-2.9;26.1;64.4;2081;2018-04-16 23:31:22:387
-2.929;-9.284;0.745;-4.463;-8.691;0.849;1.52;-0.57;-0.195;-0.297;1.445;-0.007;2.2;-2.9;26.2;64.4;2091;2018-04-16 23:31:22:397
-2.929;-9.284;0.745;-4.467;-8.704;0.682;1.54;-0.569;0.071;-0.257;1.222;-0.016;2.4;-2.8;26.2;64.4;2101;2018-04-16 23:31:22:407
-2.966;-9.304;0.729;-4.465;-8.71;0.609;1.499;-0.594;0.12;-0.257;1.222;-0.016;2.4;-2.8;26.2;64.4;2110;2018-04-16 23:31:22:416
-3.033;-9.284;0.631;-4.465;-8.71;0.609;1.499;-0.594;0.12;-0.242;1.027;-0.017;2.6;-2.8;26.2;64.4;2121;2018-04-16 23:31:22:427
-3.033;-9.284;0.631;-4.46;-8.721;0.484;1.449;-0.529;0.118;-0.233;0.878;-0.011;2.6;-2.8;26.2;64.4;2130;2018-04-16 23:31:22:436
-3.01;-9.233;0.572;-4.46;-8.721;0.484;1.449;-0.529;0.118;-0.217;0.709;-0.009;2.6;-2.8;26.2;64.4;2140;2018-04-16 23:31:22:446
-3.055;-9.267;0.52;-4.45;-8.73;0.395;1.412;-0.505;0.128;-0.202;0.518;-0.009;2.6;-2.8;26.2;64.4;2151;2018-04-16 23:31:22:457
-3.111;-9.292;0.497;-4.45;-8.73;0.395;1.412;-0.505;0.128;-0.181;0.323;-0.005;2.6;-2.8;26.2;64.4;2161;2018-04-16 23:31:22:467
-3.111;-9.292;0.497;-4.438;-8.738;0.347;1.33;-0.577;0.155;-0.169;0.142;-0.002;2.6;-2.8;26.2;64.4;2170;2018-04-16 23:31:22:476
-3.145;-9.353;0.548;-4.438;-8.738;0.347;1.33;-0.577;0.155;-0.161;-0.015;-0.002;2.7;-2.8;26.2;64.4;2180;2018-04-16 23:31:22:486
-3.145;-9.353;0.548;-4.425;-8.745;0.329;1.248;-0.562;0.278;-0.158;-0.153;-0.002;2.7;-2.8;26.2;64.4;2191;2018-04-16 23:31:22:497
-3.212;-9.293;0.676;-4.425;-8.745;0.329;1.248;-0.562;0.278;-0.153;-0.253;0.0;2.7;-2.7;26.2;64.4;2200;2018-04-16 23:31:22:506
-3.253;-9.214;0.788;-4.412;-8.752;0.334;1.159;-0.462;0.454;-0.14;-0.318;-0.001;2.6;-2.7;26.2;64.4;2211;2018-04-16 23:31:22:517
-3.253;-9.214;0.788;-4.412;-8.752;0.334;1.159;-0.462;0.454;-0.13;-0.36;-0.004;2.6;-2.7;26.2;64.4;2221;2018-04-16 23:31:22:527
-3.308;-9.159;0.836;-4.398;-8.758;0.352;1.087;-0.383;0.463;-0.105;-0.384;-0.002;2.6;-2.7;26.1;64.4;2231;2018-04-16 23:31:22:537
-3.321;-9.066;0.654;-4.398;-8.758;0.352;1.087;-0.383;0.463;-0.105;-0.384;-0.002;2.4;-2.7;26.1;39.63;2241;2018-04-16 23:31:22:547
-3.321;-9.066;0.654;-4.385;-8.763;0.384;1.057;-0.294;0.176;-0.032;-0.473;-0.005;2.4;-2.7;26.1;39.63;2250;2018-04-16 23:31:22:556
-3.328;-9.079;0.503;-4.385;-8.763;0.384;1.057;-0.294;0.176;0.032;-0.593;-0.004;2.3;-2.7;26.1;39.63;2261;2018-04-16 23:31:22:567
-3.315;-9.152;0.599;-4.368;-8.768;0.456;1.056;-0.361;0.084;0.111;-0.738;-0.006;2.3;-2.7;26.1;39.63;2270;2018-04-16 23:31:22:576
-3.332;-9.216;0.691;-4.368;-8.768;0.456;1.056;-0.361;0.084;0.17;-0.85;0.0;2.1;-2.7;26.1;39.63;2281;2018-04-16 23:31:22:587
-3.332;-9.216;0.691;-4.349;-8.771;0.566;1.022;-0.457;0.143;0.202;-0.881;-0.001;2.1;-2.7;26.1;39.63;2290;2018-04-16 23:31:22:596
-3.306;-9.238;0.644;-4.349;-8.771;0.566;1.022;-0.457;0.143;0.205;-0.854;0.002;1.8;-2.8;26.2;39.63;2301;2018-04-16 23:31:22:607
-3.314;-9.163;0.432;-4.329;-8.773;0.673;1.024;-0.4;-0.159;0.198;-0.809;0.004;1.8;-2.8;26.2;39.63;2311;2018-04-16 23:31:22:617
-3.314;-9.163;0.432;-4.319;-8.774;0.722;0.976;-0.371;-0.321;0.193;-0.786;0.004;1.8;-2.8;26.2;39.63;2321;2018-04-16 23:31:22:627
-3.36;-9.16;0.385;-4.31;-8.775;0.772;0.912;-0.39;-0.378;0.208;-0.775;0.007;1.7;-2.8;26.3;39.63;2331;2018-04-16 23:31:22:637
-3.395;-9.13;0.437;-4.31;-8.775;0.772;0.912;-0.39;-0.378;0.211;-0.701;0.011;1.6;-2.8;26.4;39.63;2340;2018-04-16 23:31:22:646
-3.395;-9.13;0.437;-4.292;-8.775;0.865;0.899;-0.36;-0.385;0.211;-0.701;0.011;1.6;-2.8;26.4;39.63;2351;2018-04-16 23:31:22:657
-3.376;-9.143;0.494;-4.292;-8.775;0.865;0.899;-0.36;-0.385;0.173;-0.517;0.01;1.5;-2.9;26.3;39.63;2360;2018-04-16 23:31:22:666
-3.251;-9.117;0.447;-4.277;-8.776;0.924;0.961;-0.376;-0.446;0.131;-0.342;0.012;1.5;-2.9;26.3;39.63;2371;2018-04-16 23:31:22:677
-3.178;-9.105;0.405;-4.272;-8.778;0.935;1.056;-0.333;-0.516;0.083;-0.164;0.013;1.6;-3.1;26.3;39.63;2383;2018-04-16 23:31:22:689
-3.178;-9.105;0.405;-4.272;-8.778;0.935;1.056;-0.333;-0.516;0.043;-0.001;0.007;1.6;-3.1;26.3;39.63;2390;2018-04-16 23:31:22:696
-3.089;-9.106;0.406;-4.263;-8.783;0.929;1.204;-0.336;-0.511;-0.004;0.216;-0.004;1.6;-3.1;26.3;39.63;2401;2018-04-16 23:31:22:707
-3.033;-9.222;0.511;-4.263;-8.783;0.929;1.204;-0.336;-0.511;-0.004;0.216;-0.004;1.8;-3.1;26.3;39.63;2411;2018-04-16 23:31:22:717
-3.033;-9.222;0.511;-4.256;-8.79;0.89;1.22;-0.471;-0.356;-0.046;0.409;-0.013;1.8;-3.1;26.3;39.63;2421;2018-04-16 23:31:22:727
-3.062;-9.287;0.551;-4.256;-8.79;0.89;1.22;-0.471;-0.356;-0.072;0.516;-0.026;1.8;-3.1;26.3;39.63;2430;2018-04-16 23:31:22:736
-3.121;-9.292;0.563;-4.249;-8.8;0.826;1.128;-0.492;-0.263;-0.086;0.593;-0.032;1.8;-3.1;26.3;39.63;2441;2018-04-16 23:31:22:747
-3.178;-9.297;0.549;-4.249;-8.8;0.826;1.128;-0.492;-0.263;-0.093;0.639;-0.04;2.0;-3.0;26.2;39.63;2451;2018-04-16 23:31:22:757
-3.178;-9.297;0.549;-4.241;-8.81;0.754;1.045;-0.494;-0.222;-0.093;0.639;-0.04;2.0;-3.0;26.2;39.63;2461;2018-04-16 23:31:22:767
-3.217;-9.293;0.533;-4.237;-8.815;0.72;0.998;-0.468;-0.184;-0.079;0.626;-0.042;2.1;-3.1;26.2;39.63;2471;2018-04-16 23:31:22:777
-3.266;-9.298;0.547;-4.237;-8.815;0.72;0.998;-0.468;-0.184;-0.071;0.568;-0.04;2.1;-3.1;26.2;39.63;2481;2018-04-16 23:31:22:787
-3.266;-9.298;0.547;-4.228;-8.824;0.661;0.965;-0.449;-0.12;-0.071;0.568;-0.04;2.3;-3.0;26.3;39.63;2491;2018-04-16 23:31:22:797
-3.263;-9.252;0.546;-4.228;-8.824;0.661;0.965;-0.449;-0.12;-0.071;0.497;-0.037;2.4;-3.0;26.2;39.63;2501;2018-04-16 23:31:22:807
-3.237;-9.236;0.503;-4.219;-8.832;0.61;0.976;-0.392;-0.095;-0.073;0.407;-0.029;2.4;-3.0;26.2;39.63;2511;2018-04-16 23:31:22:817
-3.237;-9.236;0.503;-4.219;-8.832;0.61;0.976;-0.392;-0.095;-0.072;0.331;-0.027;2.5;-2.9;26.3;39.63;2520;2018-04-16 23:31:22:826
-3.233;-9.234;0.593;-4.208;-8.839;0.574;0.975;-0.395;0.018;-0.061;0.252;-0.021;2.5;-2.9;26.3;39.63;2531;2018-04-16 23:31:22:837
-3.233;-9.234;0.593;-4.208;-8.839;0.574;0.975;-0.395;0.018;-0.061;0.252;-0.021;2.5;-2.9;26.3;39.63;2541;2018-04-16 23:31:22:847
-3.224;-9.206;0.675;-4.198;-8.845;0.555;0.993;-0.35;0.134;-0.044;0.154;-0.016;2.6;-2.9;26.3;39.49;2550;2018-04-16 23:31:22:856
-3.182;-9.183;0.703;-4.192;-8.848;0.55;0.993;-0.35;0.134;-0.028;0.088;-0.015;2.6;-2.9;26.3;39.49;2561;2018-04-16 23:31:22:867
-3.182;-9.183;0.703;-4.192;-8.848;0.55;0.991;-0.274;0.141;-0.015;0.051;-0.012;2.7;-2.8;26.3;39.49;2571;2018-04-16 23:31:22:877
-3.191;-9.106;0.656;-4.173;-8.858;0.549;0.981;-0.249;0.107;-0.005;0.017;-0.009;2.7;-2.9;26.4;39.49;2582;2018-04-16 23:31:22:888
-3.226;-9.096;0.644;-4.159;-8.864;0.552;0.933;-0.232;0.093;0.004;-0.027;-0.006;2.7;-2.8;26.3;39.49;2590;2018-04-16 23:31:22:896
-3.226;-9.096;0.644;-4.159;-8.864;0.552;0.933;-0.232;0.093;0.004;-0.027;-0.006;2.7;-2.8;26.3;39.49;2600;2018-04-16 23:31:22:906
-3.363;-9.257;0.57;-4.159;-8.864;0.552;0.933;-0.232;0.093;0.022;-0.154;0.009;2.6;-2.8;26.4;39.49;2610;2018-04-16 23:31:22:916
-3.363;-9.257;0.57;-4.13;-8.876;0.576;0.767;-0.406;-0.015;0.022;-0.202;0.013;2.6;-2.8;26.4;39.49;2621;2018-04-16 23:31:22:927
-3.393;-9.291;0.53;-4.13;-8.876;0.576;0.767;-0.406;-0.015;0.026;-0.244;0.021;2.6;-2.9;26.4;39.49;2630;2018-04-16 23:31:22:936
-3.31;-9.236;0.5;-4.123;-8.877;0.602;0.781;-0.385;-0.093;0.027;-0.29;0.028;2.5;-2.9;26.5;39.49;2641;2018-04-16 23:31:22:947
-3.31;-9.236;0.5;-4.123;-8.877;0.602;0.781;-0.385;-0.093;0.029;-0.326;0.032;2.5;-2.9;26.5;39.49;2650;2018-04-16 23:31:22:956
-3.227;-9.145;0.54;-4.117;-8.878;0.635;0.889;-0.267;-0.095;0.032;-0.353;0.034;2.5;-2.9;26.6;39.49;2661;2018-04-16 23:31:22:967
-3.163;-9.096;0.608;-4.117;-8.878;0.635;0.889;-0.267;-0.095;0.032;-0.353;0.034;2.5;-2.9;26.6;39.49;2670;2018-04-16 23:31:22:976
-3.122;-9.106;0.631;-4.11;-8.879;0.667;0.972;-0.209;-0.054;0.022;-0.321;0.035;2.4;-2.8;26.6;39.49;2680;2018-04-16 23:31:22:986
-3.122;-9.106;0.631;-4.11;-8.879;0.667;0.972;-0.209;-0.054;0.005;-0.265;0.035;2.4;-2.8;26.6;39.49;2690;2018-04-16 23:31:22:996
-3.089;-9.164;0.631;-4.103;-8.881;0.685;1.015;-0.283;-0.054;-0.012;-0.2;0.035;2.4;-2.8;26.6;39.49;2700;2018-04-16 23:31:23:006
-3.077;-9.244;0.537;-4.103;-8.881;0.685;1.015;-0.283;-0.054;-0.023;-0.14;0.034;2.3;-2.8;26.5;39.49;2711;2018-04-16 23:31:23:017
-3.083;-9.29;0.53;-4.097;-8.883;0.69;1.015;-0.38;-0.163;-0.021;-0.094;0.028;2.2;-2.8;26.5;39.49;2721;2018-04-16 23:31:23:027
-3.083;-9.29;0.53;-4.097;-8.883;0.69;1.015;-0.38;-0.163;-0.021;-0.094;0.028;2.2;-2.8;26.5;39.49;2730;2018-04-16 23:31:23:036
-3.067;-9.317;0.559;-4.087;-8.887;0.693;1.013;-0.445;-0.147;-0.007;-0.077;0.023;2.2;-2.8;26.6;39.49;2741;2018-04-16 23:31:23:047
-3.078;-9.318;0.56;-4.087;-8.887;0.693;1.013;-0.445;-0.147;0.015;-0.042;0.013;2.2;-2.8;26.6;39.49;2751;2018-04-16 23:31:23:057
-3.078;-9.318;0.56;-4.068;-8.896;0.697;0.984;-0.416;-0.102;0.015;-0.042;0.001;2.2;-2.8;26.6;39.49;2761;2018-04-16 23:31:23:067
-3.086;-9.292;0.607;-4.068;-8.896;0.697;0.984;-0.416;-0.102;0.026;0.012;0.001;2.3;-2.8;26.7;39.49;2771;2018-04-16 23:31:23:077
-3.098;-9.239;0.643;-4.046;-8.906;0.695;0.948;-0.333;-0.052;0.021;0.092;-0.007;2.3;-2.8;26.7;39.49;2781;2018-04-16 23:31:23:087
-3.103;-9.183;0.654;-4.037;-8.911;0.689;0.934;-0.272;-0.035;0.01;0.16;-0.01;2.2;-2.8;26.5;39.49;2791;2018-04-16 23:31:23:097
-3.103;-9.183;0.654;-4.037;-8.911;0.689;0.934;-0.272;-0.035;-0.002;0.242;-0.01;2.3;-2.8;26.5;39.49;2801;2018-04-16 23:31:23:107
-3.148;-9.152;0.573;-4.027;-8.917;0.668;0.878;-0.235;-0.095;-0.002;0.242;-0.01;2.3;-2.8;26.5;39.49;2810;2018-04-16 23:31:23:116
-3.148;-9.152;0.573;-4.027;-8.917;0.668;0.878;-0.235;-0.095;-0.011;0.276;-0.009;2.3;-2.8;26.5;39.49;2820;2018-04-16 23:31:23:126
-3.181;-9.117;0.543;-4.021;-8.921;0.644;0.82;-0.207;-0.097;-0.007;0.268;-0.007;2.3;-2.9;26.4;39.49;2831;2018-04-16 23:31:23:137
-3.226;-9.151;0.552;-4.021;-8.921;0.644;0.82;-0.207;-0.097;-0.007;0.249;-0.002;2.3;-2.9;26.6;39.49;2842;2018-04-16 23:31:23:148
-3.214;-9.234;0.551;-4.016;-8.925;0.622;0.788;-0.277;-0.08;-0.006;0.195;0.007;2.3;-2.9;26.6;46.97;2850;2018-04-16 23:31:23:156
-3.214;-9.234;0.551;-4.016;-8.925;0.622;0.788;-0.277;-0.08;-0.009;0.155;0.01;2.3;-2.9;26.6;46.97;2861;2018-04-16 23:31:23:167
-3.178;-9.29;0.588;-4.012;-8.928;0.607;0.833;-0.362;-0.019;-0.006;0.119;0.013;2.3;-2.9;26.6;46.97;2870;2018-04-16 23:31:23:176
-3.106;-9.278;0.569;-4.012;-8.928;0.607;0.833;-0.362;-0.019;0.002;0.073;0.013;2.3;-2.9;26.6;46.97;2881;2018-04-16 23:31:23:187
-3.106;-9.278;0.569;-4.006;-8.931;0.6;0.92;-0.345;-0.046;0.002;0.073;0.013;2.3;-2.9;26.6;46.97;2890;2018-04-16 23:31:23:196
-3.06;-9.269;0.547;-4.006;-8.931;0.6;0.92;-0.345;-0.046;0.018;-0.017;0.011;2.3;-2.9;26.5;46.97;2901;2018-04-16 23:31:23:207
-3.075;-9.209;0.589;-3.992;-8.937;0.608;0.941;-0.282;-0.045;0.031;-0.077;0.01;2.3;-2.9;26.5;46.97;2911;2018-04-16 23:31:23:217
-3.075;-9.209;0.589;-3.982;-8.94;0.616;0.914;-0.259;-0.007;0.04;-0.115;0.004;2.3;-2.9;26.5;46.97;2921;2018-04-16 23:31:23:227
-3.083;-9.185;0.605;-3.982;-8.94;0.616;0.914;-0.259;-0.007;0.034;-0.132;0.005;2.4;-2.9;26.4;46.97;2931;2018-04-16 23:31:23:237
-3.127;-9.181;0.577;-3.964;-8.947;0.633;0.837;-0.233;-0.056;0.028;-0.147;0.002;2.4;-2.8;26.4;46.97;2941;2018-04-16 23:31:23:247
-3.224;-9.206;0.539;-3.964;-8.947;0.633;0.837;-0.233;-0.056;0.028;-0.147;0.002;2.3;-2.8;26.2;46.97;2950;2018-04-16 23:31:23:256
-3.251;-9.251;0.493;-3.952;-8.952;0.648;0.712;-0.265;-0.128;0.02;-0.169;0.009;2.3;-2.8;26.2;46.97;2961;2018-04-16 23:31:23:267
-3.251;-9.251;0.493;-3.952;-8.952;0.648;0.712;-0.265;-0.128;0.017;-0.189;0.015;2.4;-2.8;26.2;46.97;2970;2018-04-16 23:31:23:276
-3.247;-9.294;0.478;-3.946;-8.953;0.665;0.699;-0.341;-0.188;0.018;-0.22;0.021;2.4;-2.8;26.2;46.97;2981;2018-04-16 23:31:23:287
-3.169;-9.297;0.547;-3.946;-8.953;0.665;0.699;-0.341;-0.188;0.021;-0.242;0.026;2.4;-2.8;26.1;46.97;2990;2018-04-16 23:31:23:296
-3.169;-9.297;0.547;-3.939;-8.954;0.686;0.796;-0.348;-0.112;0.016;-0.243;0.028;2.4;-2.8;26.1;46.97;3000;2018-04-16 23:31:23:306
-3.1;-9.268;0.601;-3.939;-8.954;0.686;0.796;-0.348;-0.112;0.007;-0.219;0.026;2.3;-2.8;26.2;46.97;3011;2018-04-16 23:31:23:317
-3.1;-9.268;0.601;-3.939;-8.954;0.686;0.796;-0.348;-0.112;0.007;-0.219;0.026;2.3;-2.8;26.2;46.97;3021;2018-04-16 23:31:23:327
-3.074;-9.193;0.648;-3.933;-8.956;0.701;0.858;-0.236;-0.053;-0.009;-0.169;0.02;2.3;-2.8;26.1;46.97;3031;2018-04-16 23:31:23:337
-3.284;-9.176;0.645;-3.933;-8.956;0.701;0.858;-0.236;-0.053;-0.024;-0.062;0.0;2.2;-2.8;26.0;46.97;3040;2018-04-16 23:31:23:346
-3.284;-9.176;0.645;-3.921;-8.961;0.702;0.618;-0.21;-0.046;-0.022;-0.022;-0.001;2.2;-2.8;26.0;46.97;3051;2018-04-16 23:31:23:357
-3.349;-9.197;0.636;-3.921;-8.961;0.702;0.618;-0.21;-0.046;-0.011;0.009;-0.006;2.2;-2.7;25.9;46.97;3060;2018-04-16 23:31:23:366
-3.379;-9.261;0.612;-3.91;-8.966;0.698;0.537;-0.269;-0.082;-0.001;0.022;-0.006;2.2;-2.7;25.9;46.97;3071;2018-04-16 23:31:23:377
-3.379;-9.261;0.612;-3.91;-8.966;0.698;0.537;-0.269;-0.082;0.006;0.037;-0.005;2.2;-2.6;26.1;46.97;3080;2018-04-16 23:31:23:386
-3.339;-9.298;0.648;-3.901;-8.97;0.695;0.563;-0.328;-0.047;0.006;0.051;-0.005;2.2;-2.6;26.1;46.97;3091;2018-04-16 23:31:23:397
-3.287;-9.26;0.678;-3.899;-8.972;0.692;0.611;-0.288;-0.014;-0.001;0.078;-0.001;2.3;-2.6;26.0;46.97;3101;2018-04-16 23:31:23:407
-3.199;-9.146;0.691;-3.899;-8.972;0.692;0.611;-0.288;-0.014;-0.013;0.11;-0.002;2.3;-2.6;26.0;46.97;3111;2018-04-16 23:31:23:417
-3.199;-9.146;0.691;-3.893;-8.975;0.679;0.716;-0.144;0.023;-0.032;0.158;-0.007;2.3;-2.6;26.0;46.97;3121;2018-04-16 23:31:23:427
-3.165;-9.07;0.727;-3.893;-8.975;0.679;0.716;-0.144;0.023;-0.032;0.158;-0.007;2.3;-2.6;26.0;46.97;3130;2018-04-16 23:31:23:436
-3.165;-9.07;0.727;-3.887;-8.979;0.662;0.718;-0.066;0.112;-0.031;0.17;-0.012;2.3;-2.6;26.0;46.97;3140;2018-04-16 23:31:23:446
-3.207;-9.056;0.767;-3.887;-8.979;0.662;0.718;-0.066;0.112;-0.02;0.191;-0.013;2.3;-2.5;25.9;46.97;3150;2018-04-16 23:31:23:456
-3.264;-9.09;0.728;-3.882;-8.983;0.645;0.617;-0.107;0.083;-0.018;0.181;-0.012;2.3;-2.5;25.9;49.21;3161;2018-04-16 23:31:23:467
-3.363;-9.145;0.655;-3.882;-8.983;0.645;0.617;-0.107;0.083;-0.018;0.181;-0.012;2.3;-2.5;25.9;49.21;3171;2018-04-16 23:31:23:477
-3.363;-9.145;0.655;-3.876;-8.986;0.631;0.491;-0.183;0.016;-0.007;0.136;-0.011;2.3;-2.5;25.9;49.21;3180;2018-04-16 23:31:23:486
-3.443;-9.207;0.639;-3.876;-8.986;0.631;0.491;-0.183;0.016;0.001;0.088;-0.009;2.3;-2.5;25.9;49.21;3190;2018-04-16 23:31:23:496
-3.468;-9.187;0.657;-3.872;-8.988;0.628;0.407;-0.209;0.016;0.013;0.035;-0.004;2.4;-2.5;26.0;49.21;3200;2018-04-16 23:31:23:506
-3.468;-9.187;0.657;-3.872;-8.988;0.628;0.407;-0.209;0.016;0.027;-0.013;0.001;2.4;-2.5;26.0;49.21;3211;2018-04-16 23:31:23:517
-3.466;-9.153;0.663;-3.868;-8.989;0.636;0.402;-0.164;0.027;0.039;-0.054;0.007;2.4;-2.5;26.0;49.21;3222;2018-04-16 23:31:23:528
-3.397;-9.163;0.625;-3.868;-8.989;0.636;0.402;-0.164;0.027;0.048;-0.094;0.016;2.4;-2.5;26.0;49.21;3231;2018-04-16 23:31:23:537
-3.397;-9.163;0.625;-3.865;-8.989;0.654;0.489;-0.181;-0.053;0.06;-0.123;0.021;2.4;-2.4;26.1;49.21;3240;2018-04-16 23:31:23:546
-3.33;-9.181;0.581;-3.865;-8.989;0.654;0.489;-0.181;-0.053;0.054;-0.143;0.027;2.4;-2.4;26.1;49.21;3251;2018-04-16 23:31:23:557
-3.268;-9.205;0.523;-3.862;-8.989;0.673;0.607;-0.225;-0.187;0.054;-0.143;0.027;2.4;-2.4;26.2;49.21;3260;2018-04-16 23:31:23:566
-3.219;-9.257;0.475;-3.862;-8.989;0.673;0.607;-0.225;-0.187;0.043;-0.17;0.031;2.4;-2.4;26.3;49.21;3270;2018-04-16 23:31:23:576
-3.206;-9.309;0.474;-3.859;-8.989;0.692;0.653;-0.32;-0.218;0.029;-0.208;0.034;2.4;-2.4;26.3;49.21;3281;2018-04-16 23:31:23:587
-3.206;-9.309;0.474;-3.859;-8.989;0.692;0.653;-0.32;-0.218;0.029;-0.208;0.034;2.5;-2.4;26.3;49.21;3290;2018-04-16 23:31:23:596
-3.215;-9.3;0.542;-3.855;-8.989;0.712;0.617;-0.274;-0.14;0.026;-0.222;0.032;2.5;-2.4;26.3;49.21;3300;2018-04-16 23:31:23:606
-3.26;-9.201;0.572;-3.855;-8.989;0.712;0.617;-0.274;-0.14;0.021;-0.193;0.029;2.5;-2.4;26.3;49.21;3311;2018-04-16 23:31:23:617
-3.247;-9.042;0.572;-3.852;-8.989;0.728;0.599;-0.132;-0.146;0.022;-0.156;0.028;2.5;-2.4;26.4;49.21;3320;2018-04-16 23:31:23:626
-3.247;-9.042;0.572;-3.852;-8.989;0.728;0.599;-0.132;-0.146;0.023;-0.111;0.026;2.5;-2.4;26.4;49.21;3331;2018-04-16 23:31:23:637
-3.212;-8.994;0.565;-3.85;-8.989;0.737;0.638;-0.005;-0.172;0.026;-0.037;0.022;2.5;-2.4;26.4;49.21;3340;2018-04-16 23:31:23:646
-3.174;-9.091;0.57;-3.85;-8.989;0.737;0.638;-0.005;-0.172;0.026;-0.037;0.022;2.5;-2.4;26.4;49.21;3350;2018-04-16 23:31:23:656
-3.174;-9.091;0.57;-3.848;-8.99;0.738;0.693;-0.143;-0.174;0.022;0.054;0.017;2.6;-2.4;26.5;49.21;3361;2018-04-16 23:31:23:667
-3.134;-9.214;0.579;-3.848;-8.99;0.738;0.693;-0.143;-0.174;0.004;0.144;0.011;2.6;-2.4;26.5;49.21;3370;2018-04-16 23:31:23:676
-3.106;-9.284;0.591;-3.845;-8.992;0.726;0.737;-0.279;-0.138;-0.013;0.2;0.007;2.5;-2.4;26.4;49.21;3381;2018-04-16 23:31:23:687
-3.106;-9.284;0.591;-3.845;-8.992;0.726;0.737;-0.279;-0.138;-0.013;0.2;0.007;2.5;-2.4;26.4;49.21;3390;2018-04-16 23:31:23:696
-3.1;-9.227;0.589;-3.842;-8.996;0.701;0.741;-0.232;-0.112;-0.034;0.26;0.005;2.5;-2.5;26.5;49.21;3400;2018-04-16 23:31:23:706
-3.157;-9.143;0.618;-3.842;-8.996;0.701;0.741;-0.232;-0.112;-0.037;0.28;-0.001;2.5;-2.5;26.5;49.21;3411;2018-04-16 23:31:23:717
-3.157;-9.143;0.618;-3.838;-8.999;0.673;0.665;-0.125;-0.042;-0.022;0.27;-0.015;2.5;-2.4;26.5;49.21;3421;2018-04-16 23:31:23:727
-3.262;-9.104;0.672;-3.838;-8.999;0.673;0.665;-0.125;-0.042;-0.022;0.27;-0.015;2.5;-2.4;26.5;49.21;3431;2018-04-16 23:31:23:737
-3.42;-9.109;0.725;-3.834;-9.003;0.65;0.448;-0.099;0.079;-0.007;0.261;-0.022;2.5;-2.4;26.6;49.21;3442;2018-04-16 23:31:23:748
-3.42;-9.109;0.725;-3.834;-9.003;0.65;0.448;-0.099;0.079;-0.001;0.263;-0.02;2.5;-2.4;26.6;49.21;3451;2018-04-16 23:31:23:757
-3.42;-9.109;0.725;-3.834;-9.003;0.65;0.448;-0.099;0.079;-0.001;0.263;-0.02;2.5;-2.4;26.6;50.9;3461;2018-04-16 23:31:23:767
-3.518;-9.121;0.707;-3.831;-9.005;0.632;0.312;-0.115;0.076;0.004;0.259;-0.013;2.5;-2.4;26.6;50.9;3471;2018-04-16 23:31:23:777
-3.602;-9.209;0.599;-3.831;-9.005;0.632;0.312;-0.115;0.076;0.026;0.161;0.017;2.4;-2.4;26.6;50.9;3481;2018-04-16 23:31:23:787
-3.602;-9.209;0.599;-3.833;-9.005;0.616;0.23;-0.217;-0.033;0.026;0.161;0.017;2.4;-2.4;26.6;50.9;3490;2018-04-16 23:31:23:796
-3.533;-9.231;0.6;-3.833;-9.005;0.616;0.23;-0.217;-0.033;0.055;0.065;0.039;2.4;-2.3;26.5;50.9;3501;2018-04-16 23:31:23:807
-3.401;-9.121;0.605;-3.838;-9.003;0.624;0.393;-0.155;-0.007;0.066;0.017;0.049;2.4;-2.3;26.5;50.9;3510;2018-04-16 23:31:23:816
-3.401;-9.121;0.605;-3.838;-9.003;0.624;0.393;-0.155;-0.007;0.07;-0.017;0.054;2.3;-2.3;26.5;50.9;3521;2018-04-16 23:31:23:827
-3.244;-9.042;0.577;-3.842;-9.0;0.638;0.598;-0.042;-0.061;0.072;-0.039;0.055;2.3;-2.3;26.5;50.9;3530;2018-04-16 23:31:23:836
-3.148;-9.037;0.53;-3.842;-9.0;0.638;0.598;-0.042;-0.061;0.068;-0.06;0.055;2.3;-2.3;26.5;50.9;3541;2018-04-16 23:31:23:847
-3.148;-9.037;0.53;-3.845;-8.998;0.655;0.698;-0.045;-0.13;0.066;-0.076;0.049;2.3;-2.3;26.5;50.9;3550;2018-04-16 23:31:23:856
-3.123;-9.085;0.541;-3.845;-8.998;0.655;0.698;-0.045;-0.13;0.064;-0.087;0.046;2.3;-2.3;26.5;50.9;3561;2018-04-16 23:31:23:867
-3.096;-9.166;0.546;-3.845;-8.996;0.672;0.737;-0.128;-0.14;0.064;-0.093;0.043;2.3;-2.3;26.5;50.9;3570;2018-04-16 23:31:23:876
-3.096;-9.166;0.551;-3.845;-8.996;0.672;0.737;-0.128;-0.14;0.061;-0.095;0.034;2.2;-2.3;26.5;50.9;3581;2018-04-16 23:31:23:887
-3.092;-9.26;0.551;-3.842;-8.996;0.69;0.756;-0.296;-0.152;0.068;-0.1;0.028;2.2;-2.3;26.5;50.9;3590;2018-04-16 23:31:23:896
-3.042;-9.342;0.54;-3.842;-8.996;0.69;0.756;-0.296;-0.152;0.073;-0.104;0.023;2.2;-2.3;26.6;50.9;3600;2018-04-16 23:31:23:906
-3.012;-9.305;0.541;-3.836;-8.997;0.71;0.799;-0.344;-0.187;0.081;-0.105;0.01;2.2;-2.3;26.6;50.9;3611;2018-04-16 23:31:23:917
-3.012;-9.305;0.541;-3.832;-8.998;0.72;0.826;-0.277;-0.174;0.081;-0.105;0.01;2.2;-2.3;26.6;50.9;3620;2018-04-16 23:31:23:926
-3.004;-9.214;0.553;-3.832;-8.998;0.72;0.826;-0.277;-0.174;0.078;-0.089;0.001;2.2;-2.2;26.6;50.9;3632;2018-04-16 23:31:23:938
-3.035;-9.073;0.581;-3.823;-9.001;0.734;0.788;-0.072;-0.153;0.062;-0.056;-0.004;2.1;-2.2;26.5;50.9;3641;2018-04-16 23:31:23:947
-3.245;-9.042;0.645;-3.823;-9.001;0.734;0.788;-0.072;-0.153;0.018;0.049;-0.018;2.1;-2.2;26.6;50.9;3651;2018-04-16 23:31:23:957
-3.417;-9.085;0.648;-3.815;-9.004;0.733;0.47;-0.054;-0.092;0.009;0.094;-0.021;2.0;-2.2;26.6;50.9;3661;2018-04-16 23:31:23:967
-3.417;-9.085;0.648;-3.815;-9.004;0.733;0.47;-0.054;-0.092;0.009;0.094;-0.021;2.0;-2.2;26.6;50.9;3671;2018-04-16 23:31:23:977
-3.522;-9.086;0.605;-3.811;-9.007;0.726;0.289;-0.079;-0.122;0.021;0.114;-0.016;2.0;-2.2;26.6;50.9;3680;2018-04-16 23:31:23:986
-3.523;-9.099;0.575;-3.811;-9.007;0.726;0.289;-0.079;-0.122;0.077;0.051;-0.001;2.0;-2.2;26.6;50.9;3690;2018-04-16 23:31:23:996
-3.523;-9.099;0.575;-3.807;-9.008;0.73;0.301;-0.106;-0.138;0.104;0.021;0.005;1.9;-2.2;26.8;50.9;3701;2018-04-16 23:31:24:007
-3.455;-9.146;0.646;-3.807;-9.008;0.73;0.301;-0.106;-0.138;0.104;0.021;0.005;1.9;-2.2;26.8;50.9;3710;2018-04-16 23:31:24:016
-3.415;-9.194;0.691;-3.805;-9.008;0.745;0.39;-0.186;-0.054;0.101;0.043;0.007;1.9;-2.2;26.8;50.9;3721;2018-04-16 23:31:24:027
-3.399;-9.218;0.624;-3.805;-9.008;0.745;0.39;-0.186;-0.054;0.082;0.086;0.006;1.9;-2.2;26.9;50.9;3731;2018-04-16 23:31:24:037
-3.399;-9.218;0.624;-3.804;-9.008;0.75;0.404;-0.206;-0.152;0.067;0.112;0.007;1.9;-2.2;26.9;50.9;3740;2018-04-16 23:31:24:046
-3.363;-9.184;0.566;-3.804;-9.008;0.75;0.404;-0.206;-0.152;0.067;0.108;0.007;1.8;-2.2;26.9;50.9;3751;2018-04-16 23:31:24:057
-3.293;-9.157;0.479;-3.802;-9.008;0.754;0.508;-0.148;-0.275;0.067;0.108;0.007;1.8;-2.2;26.9;50.9;3761;2018-04-16 23:31:24:067
-3.293;-9.157;0.479;-3.802;-9.008;0.754;0.508;-0.148;-0.275;0.09;0.046;0.007;1.8;-2.1;26.9;50.9;3770;2018-04-16 23:31:24:076
-3.314;-9.141;0.504;-3.798;-9.009;0.769;0.493;-0.16;-0.261;0.105;-0.005;0.005;1.8;-2.1;27.0;50.61;3781;2018-04-16 23:31:24:087
-3.309;-9.173;0.509;-3.798;-9.009;0.769;0.493;-0.16;-0.261;0.1;-0.012;0.007;1.8;-2.1;27.0;50.61;3790;2018-04-16 23:31:24:096
-3.364;-9.267;0.515;-3.793;-9.009;0.783;0.452;-0.196;-0.267;0.09;-0.004;0.005;1.8;-2.1;27.1;50.61;3801;2018-04-16 23:31:24:107
-3.364;-9.267;0.515;-3.793;-9.009;0.783;0.452;-0.196;-0.267;0.072;0.007;0.002;1.8;-2.1;27.1;50.61;3810;2018-04-16 23:31:24:116
-3.403;-9.303;0.564;-3.79;-9.01;0.792;0.387;-0.293;-0.228;0.054;0.031;0.004;1.8;-2.0;27.0;50.61;3821;2018-04-16 23:31:24:127
-3.401;-9.242;0.549;-3.79;-9.01;0.792;0.387;-0.293;-0.228;0.054;0.031;0.004;1.8;-2.0;27.0;50.61;3830;2018-04-16 23:31:24:136
-3.401;-9.242;0.549;-3.788;-9.011;0.795;0.404;-0.214;-0.25;0.051;0.043;0.004;1.8;-2.0;27.0;50.61;3840;2018-04-16 23:31:24:146
-3.391;-9.164;0.521;-3.788;-9.011;0.795;0.404;-0.214;-0.25;0.068;0.042;0.01;1.8;-2.0;27.0;50.61;3850;2018-04-16 23:31:24:156
-3.428;-9.136;0.546;-3.786;-9.011;0.803;0.381;-0.125;-0.284;0.098;0.024;0.007;1.9;-1.9;26.9;50.61;3860;2018-04-16 23:31:24:166
-3.428;-9.136;0.546;-3.786;-9.011;0.803;0.381;-0.125;-0.284;0.098;0.024;0.007;1.9;-1.9;26.9;50.61;3870;2018-04-16 23:31:24:176
-3.482;-9.157;0.59;-3.785;-9.009;0.819;0.303;-0.147;-0.229;0.125;0.043;0.013;1.9;-1.9;26.9;50.61;3880;2018-04-16 23:31:24:186
-3.463;-9.136;0.607;-3.785;-9.009;0.819;0.303;-0.147;-0.229;0.133;0.081;0.022;1.9;-1.9;26.9;50.61;3890;2018-04-16 23:31:24:196
-3.463;-9.136;0.607;-3.788;-9.007;0.834;0.358;-0.101;-0.228;0.133;0.081;0.022;1.9;-1.9;26.9;50.61;3900;2018-04-16 23:31:24:206
-3.403;-9.068;0.59;-3.788;-9.007;0.834;0.358;-0.101;-0.228;0.145;0.156;0.022;1.8;-1.9;26.8;50.61;3910;2018-04-16 23:31:24:216
-3.288;-9.001;0.552;-3.79;-9.005;0.845;0.502;0.004;-0.293;0.167;0.217;0.012;1.8;-1.8;26.8;50.61;3920;2018-04-16 23:31:24:226
-3.276;-9.064;0.534;-3.79;-9.005;0.845;0.502;0.004;-0.293;0.181;0.254;0.006;1.8;-1.8;26.8;50.61;3930;2018-04-16 23:31:24:236
-3.276;-9.064;0.534;-3.79;-9.004;0.853;0.521;-0.081;-0.321;0.178;0.297;-0.004;1.8;-1.8;26.9;50.61;3940;2018-04-16 23:31:24:246
-3.227;-9.072;0.515;-3.79;-9.004;0.853;0.521;-0.081;-0.321;0.165;0.346;-0.006;1.8;-1.8;26.9;50.61;3950;2018-04-16 23:31:24:256
-3.184;-9.035;0.437;-3.791;-9.004;0.85;0.611;-0.035;-0.386;0.121;0.411;-0.007;1.8;-1.8;27.0;50.61;3960;2018-04-16 23:31:24:266
-3.184;-9.035;0.437;-3.791;-9.004;0.85;0.611;-0.035;-0.386;0.121;0.411;-0.007;1.8;-1.8;27.0;50.61;3970;2018-04-16 23:31:24:276
-3.177;-9.009;0.408;-3.79;-9.006;0.835;0.613;-0.004;-0.427;0.104;0.408;-0.012;1.7;-1.6;26.9;50.61;3980;2018-04-16 23:31:24:286
-3.23;-9.033;0.402;-3.79;-9.006;0.835;0.613;-0.004;-0.427;0.062;0.375;-0.006;1.7;-1.6;26.9;50.61;3991;2018-04-16 23:31:24:297
-3.23;-9.033;0.402;-3.791;-9.007;0.815;0.565;-0.025;-0.416;0.062;0.375;-0.006;1.7;-1.6;26.8;50.61;4000;2018-04-16 23:31:24:306
-3.212;-8.99;0.388;-3.791;-9.007;0.815;0.565;-0.025;-0.416;0.05;0.331;0.005;1.7;-1.6;26.8;50.61;4011;2018-04-16 23:31:24:317
-3.212;-8.99;0.388;-3.794;-9.007;0.8;0.542;0.004;-0.386;0.049;0.224;0.023;1.7;-1.6;26.8;50.61;4021;2018-04-16 23:31:24:327
-3.268;-9.039;0.435;-3.794;-9.007;0.8;0.542;0.004;-0.386;0.046;0.147;0.042;1.6;-1.5;26.7;50.61;4031;2018-04-16 23:31:24:337
-3.315;-9.05;0.475;-3.8;-9.005;0.796;0.485;-0.045;-0.321;0.042;0.077;0.055;1.6;-1.5;26.7;50.61;4040;2018-04-16 23:31:24:346
-3.315;-9.044;0.435;-3.8;-9.005;0.796;0.485;-0.045;-0.321;0.04;0.012;0.062;1.6;-1.5;26.7;50.61;4051;2018-04-16 23:31:24:357
-3.233;-9.044;0.435;-3.807;-9.002;0.802;0.621;-0.048;-0.376;0.039;-0.061;0.071;1.6;-1.5;26.7;50.61;4061;2018-04-16 23:31:24:367
-3.195;-9.084;0.415;-3.807;-9.002;0.802;0.621;-0.048;-0.376;0.042;-0.103;0.071;1.5;-1.4;26.7;50.61;4071;2018-04-16 23:31:24:377
-3.243;-9.148;0.481;-3.809;-9.0;0.809;0.614;-0.083;-0.394;0.053;-0.214;0.062;1.5;-1.4;26.7;50.61;4080;2018-04-16 23:31:24:386
-3.207;-9.074;0.503;-3.811;-8.997;0.835;0.604;-0.077;-0.332;0.068;-0.26;0.068;1.4;-1.4;26.7;50.61;4094;2018-04-16 23:31:24:400
-3.207;-9.074;0.503;-3.811;-8.997;0.835;0.604;-0.077;-0.332;0.068;-0.26;0.068;1.4;-1.3;26.7;51.44;4103;2018-04-16 23:31:24:409
-2.8;-8.671;0.45;-3.811;-8.997;0.835;0.604;-0.077;-0.332;0.121;-0.308;0.066;1.4;-1.3;26.7;51.44;4111;2018-04-16 23:31:24:417
-2.8;-8.671;0.45;-3.814;-8.99;0.898;1.074;0.374;-0.441;0.143;-0.319;0.05;1.3;-1.2;26.9;51.44;4120;2018-04-16 23:31:24:426
-2.668;-8.641;0.487;-3.814;-8.99;0.898;1.074;0.374;-0.441;0.14;-0.286;0.042;1.3;-1.2;26.9;51.44;4131;2018-04-16 23:31:24:437
-2.543;-8.892;0.451;-3.813;-8.986;0.938;1.224;0.213;-0.459;0.109;-0.214;0.042;1.3;-1.2;26.9;51.44;4140;2018-04-16 23:31:24:446
-2.543;-8.892;0.451;-3.813;-8.986;0.938;1.224;0.213;-0.459;0.048;-0.13;0.05;1.3;-1.2;26.9;51.44;4151;2018-04-16 23:31:24:457
-2.454;-9.331;0.34;-3.81;-8.987;0.942;1.356;-0.345;-0.602;-0.032;-0.066;0.064;1.3;-1.2;26.9;51.44;4161;2018-04-16 23:31:24:467
-2.476;-9.643;0.266;-3.811;-8.988;0.931;1.336;-0.655;-0.666;-0.105;-0.05;0.077;1.3;-1.1;27.0;51.44;4171;2018-04-16 23:31:24:477
-2.476;-9.643;0.266;-3.811;-8.988;0.931;1.336;-0.655;-0.666;-0.105;-0.05;0.077;1.3;-1.1;27.0;51.44;4181;2018-04-16 23:31:24:487
-2.322;-10.002;0.043;-3.819;-8.986;0.908;1.63;-1.051;-0.926;-0.17;-0.142;0.116;1.2;-1.1;27.1;51.44;4191;2018-04-16 23:31:24:497
-1.998;-10.059;-0.111;-3.819;-8.986;0.908;1.63;-1.051;-0.926;-0.161;-0.429;0.104;1.2;-1.1;27.1;51.44;4201;2018-04-16 23:31:24:507
-2.134;-9.937;-0.048;-3.813;-8.988;0.922;1.815;-0.966;-0.999;-0.106;-0.718;0.06;1.2;-1.1;27.1;51.44;4210;2018-04-16 23:31:24:516
-2.134;-9.937;-0.048;-3.813;-8.988;0.922;1.815;-0.966;-0.999;-0.04;-1.01;0.021;1.2;-1.0;27.2;51.44;4220;2018-04-16 23:31:24:526
-2.597;-9.975;0.098;-3.785;-8.992;0.999;1.188;-0.984;-0.901;-0.001;-1.236;-0.012;1.2;-1.0;27.2;51.44;4231;2018-04-16 23:31:24:537
-3.185;-10.066;0.753;-3.785;-8.992;0.999;1.188;-0.984;-0.901;0.002;-1.366;-0.056;1.3;-1.0;27.1;51.44;4241;2018-04-16 23:31:24:547
-3.185;-10.066;0.753;-3.74;-8.998;1.1;0.464;-0.992;-0.243;-0.005;-1.359;-0.093;1.3;-1.0;27.1;51.44;4251;2018-04-16 23:31:24:557
-3.306;-9.492;0.935;-3.74;-8.998;1.1;0.464;-0.992;-0.243;-0.016;-1.223;-0.099;1.3;-1.0;27.1;51.44;4260;2018-04-16 23:31:24:566
-3.144;-8.63;0.63;-3.693;-9.008;1.179;0.482;0.108;-0.424;0.013;-0.986;-0.115;1.4;-1.0;27.1;51.44;4271;2018-04-16 23:31:24:577
-3.144;-8.63;0.63;-3.693;-9.008;1.179;0.482;0.108;-0.424;0.013;-0.986;-0.115;1.4;-1.0;27.1;51.44;4280;2018-04-16 23:31:24:586
-2.872;-8.48;0.505;-3.649;-9.014;1.269;0.777;0.533;-0.764;0.136;-0.916;-0.112;1.6;-1.0;27.1;51.44;4291;2018-04-16 23:31:24:597
-2.705;-8.89;0.593;-3.625;-9.015;1.324;0.919;0.126;-0.732;0.286;-0.878;-0.115;1.6;-1.0;27.1;51.44;4301;2018-04-16 23:31:24:607
-2.705;-8.89;0.593;-3.625;-9.015;1.324;0.919;0.126;-0.732;0.286;-0.878;-0.115;1.9;-0.9;27.0;51.44;4311;2018-04-16 23:31:24:617
-2.088;-9.847;0.728;-3.573;-9.02;1.428;1.486;-0.827;-0.7;0.342;-0.588;-0.125;2.1;-0.9;26.9;51.44;4321;2018-04-16 23:31:24:627
-1.372;-10.127;0.894;-3.573;-9.02;1.428;1.486;-0.827;-0.7;0.329;-0.37;-0.16;2.1;-0.9;26.9;51.44;4330;2018-04-16 23:31:24:636
-1.372;-10.127;0.894;-3.521;-9.029;1.499;2.237;-1.013;-0.569;0.309;-0.11;-0.216;2.3;-0.9;26.8;51.44;4340;2018-04-16 23:31:24:646
-1.301;-9.906;0.974;-3.521;-9.029;1.499;2.237;-1.013;-0.569;0.294;0.183;-0.261;2.3;-0.9;26.8;51.44;4351;2018-04-16 23:31:24:657
-1.332;-9.26;1.046;-3.462;-9.048;1.522;2.13;-0.211;-0.475;0.269;0.496;-0.309;2.7;-0.8;26.7;51.44;4361;2018-04-16 23:31:24:667
-1.529;-9.019;1.088;-3.434;-9.06;1.517;1.905;0.041;-0.428;0.252;0.775;-0.39;2.7;-0.8;26.7;51.44;4371;2018-04-16 23:31:24:677
-1.923;-8.91;1.098;-3.434;-9.06;1.517;1.905;0.041;-0.428;0.274;1.078;-0.454;2.9;-0.7;26.6;51.44;4381;2018-04-16 23:31:24:687
-1.923;-8.91;1.098;-3.377;-9.085;1.492;1.385;0.193;-0.411;0.274;1.078;-0.454;2.9;-0.7;26.6;51.44;4391;2018-04-16 23:31:24:697
-2.169;-8.891;1.093;-3.377;-9.085;1.492;1.385;0.193;-0.411;0.356;1.217;-0.446;2.9;-0.7;26.6;51.44;4401;2018-04-16 23:31:24:707
-2.169;-8.891;1.093;-3.328;-9.105;1.478;0.975;0.21;-0.345;0.423;1.26;-0.436;3.2;-0.6;26.6;51.44;4410;2018-04-16 23:31:24:716
-2.492;-8.957;1.135;-3.306;-9.113;1.479;0.685;0.089;-0.326;0.486;1.273;-0.424;3.2;-0.6;26.6;51.77;4421;2018-04-16 23:31:24:727
-2.802;-9.154;1.166;-3.306;-9.113;1.479;0.685;0.089;-0.326;0.584;1.269;-0.39;3.3;-0.5;26.5;51.77;4431;2018-04-16 23:31:24:737
-3.166;-9.334;1.31;-3.271;-9.123;1.499;0.169;-0.217;-0.259;0.629;1.266;-0.354;3.5;-0.3;26.6;51.77;4441;2018-04-16 23:31:24:747
-3.166;-9.334;1.31;-3.271;-9.123;1.499;0.169;-0.217;-0.259;0.629;1.266;-0.354;3.5;-0.3;26.6;51.77;4451;2018-04-16 23:31:24:757
-3.412;-9.278;1.533;-3.248;-9.124;1.539;-0.163;-0.153;-0.005;0.699;1.266;-0.319;3.5;-0.3;26.6;51.77;4460;2018-04-16 23:31:24:766
-3.584;-9.166;1.508;-3.243;-9.121;1.568;-0.341;-0.045;-0.06;0.775;1.249;-0.286;3.5;-0.1;26.5;51.77;4472;2018-04-16 23:31:24:778
-3.584;-9.166;1.508;-3.243;-9.121;1.568;-0.341;-0.045;-0.06;0.976;1.07;-0.233;3.5;0.0;26.5;51.77;4481;2018-04-16 23:31:24:787
-4.126;-9.304;0.871;-3.239;-9.104;1.674;-0.888;-0.2;-0.803;1.14;0.808;-0.186;3.5;0.2;26.5;51.77;4491;2018-04-16 23:31:24:797
-4.126;-9.304;0.871;-3.239;-9.104;1.674;-0.888;-0.2;-0.803;1.14;0.808;-0.186;3.5;0.2;26.5;51.77;4501;2018-04-16 23:31:24:807
-4.202;-9.75;0.193;-3.235;-9.067;1.871;-0.928;-0.741;-1.827;1.318;0.313;-0.082;3.4;0.5;26.4;51.77;4510;2018-04-16 23:31:24:816
-3.845;-9.867;-0.49;-3.235;-9.067;1.871;-0.928;-0.741;-1.827;1.344;-0.028;0.0;3.4;0.5;26.4;51.77;4521;2018-04-16 23:31:24:827
-3.46;-9.738;-1.301;-3.232;-9.013;2.119;-0.227;-0.726;-3.421;1.326;-0.412;0.07;3.3;0.8;26.3;51.77;4530;2018-04-16 23:31:24:836
-3.46;-9.352;-2.169;-3.232;-9.013;2.119;-0.227;-0.726;-3.421;1.332;-1.461;0.167;3.3;0.8;26.3;51.77;4541;2018-04-16 23:31:24:847
-1.836;-9.553;-2.88;-3.196;-8.953;2.41;0.717;-0.409;-4.775;1.376;-2.158;0.215;3.1;1.2;26.1;51.77;4557;2018-04-16 23:31:24:863
-1.836;-9.553;-2.88;-3.196;-8.953;2.41;0.717;-0.409;-4.775;1.376;-2.158;0.215;3.1;1.2;26.1;51.77;4561;2018-04-16 23:31:24:867
-0.688;-10.409;-3.779;-3.114;-8.876;2.772;2.015;-1.136;-6.389;1.202;-2.276;0.208;3.1;1.5;26.1;51.77;4575;2018-04-16 23:31:24:881
-0.688;-10.409;-3.779;-3.072;-8.841;2.926;2.624;-1.836;-6.599;1.202;-2.276;0.208;3.1;1.5;26.1;51.77;4580;2018-04-16 23:31:24:886
-0.13;-11.2;-3.071;-3.072;-8.841;2.926;2.624;-1.836;-6.599;0.809;-1.635;0.164;2.9;2.0;26.1;51.77;4590;2018-04-16 23:31:24:896
0.326;-12.372;-1.019;-3.077;-8.821;2.983;3.403;-3.551;-4.001;-0.064;0.518;0.098;2.8;2.5;25.9;51.77;4600;2018-04-16 23:31:24:906
0.47;-12.875;-0.551;-3.077;-8.821;2.983;3.403;-3.551;-4.001;-0.542;1.897;0.038;2.8;2.5;25.9;51.77;4611;2018-04-16 23:31:24:917
0.089;-12.936;-0.103;-3.197;-8.862;2.724;3.509;-4.062;-3.046;-0.831;2.473;-0.086;2.6;3.1;25.8;51.77;4620;2018-04-16 23:31:24:926
0.089;-12.936;-0.103;-3.197;-8.862;2.724;3.509;-4.062;-3.046;-0.944;2.336;-0.238;2.6;3.1;25.8;51.77;4631;2018-04-16 23:31:24:937
-0.913;-13.011;0.028;-3.252;-8.929;2.423;2.338;-4.082;-2.395;-0.942;1.763;-0.327;2.4;3.5;25.8;51.77;4641;2018-04-16 23:31:24:947
-1.519;-12.943;-0.342;-3.244;-8.962;2.31;1.725;-3.981;-2.652;-0.916;0.935;-0.326;2.4;3.5;25.8;51.77;4651;2018-04-16 23:31:24:957
-2.585;-12.1;-0.843;-3.244;-8.962;2.31;1.725;-3.981;-2.652;-0.924;0.005;-0.279;2.2;3.8;25.9;51.77;4661;2018-04-16 23:31:24:967
-2.585;-12.1;-0.843;-3.181;-9.022;2.159;0.3;-2.791;-3.157;-0.924;0.005;-0.279;2.2;3.8;25.9;51.77;4670;2018-04-16 23:31:24:976
-3.944;-11.187;-1.607;-3.181;-9.022;2.159;0.3;-2.791;-3.157;-1.114;-1.058;-0.205;2.2;3.8;25.9;51.77;4681;2018-04-16 23:31:24:987
-5.419;-10.763;-3.065;-3.107;-9.086;1.99;-1.856;-1.769;-4.508;-1.381;-1.396;-0.109;1.9;4.2;25.9;51.77;4691;2018-04-16 23:31:24:997
-5.419;-10.763;-3.065;-3.107;-9.086;1.99;-1.856;-1.769;-4.508;-2.031;-1.45;0.169;1.7;4.5;25.8;51.77;4701;2018-04-16 23:31:25:007
-6.128;-10.525;-2.646;-3.106;-9.154;1.654;-3.022;-1.371;-4.299;-2.575;-1.279;0.368;1.7;4.5;25.8;51.77;4710;2018-04-16 23:31:25:016
-5.595;-10.749;0.569;-3.106;-9.154;1.654;-3.022;-1.371;-4.299;-3.245;-0.836;0.564;1.6;4.7;25.8;51.77;4720;2018-04-16 23:31:25:026
-5.595;-10.749;0.569;-3.184;-9.208;1.115;-2.267;-1.646;0.401;-3.245;-0.836;0.564;1.6;4.7;25.8;51.77;4731;2018-04-16 23:31:25:037
-5.442;-11.352;4.059;-3.184;-9.208;1.115;-2.267;-1.646;0.401;-3.367;-0.184;0.58;1.6;4.7;25.8;52.54;4741;2018-04-16 23:31:25:047
-5.442;-11.352;4.059;-3.295;-9.223;0.51;-2.147;-2.352;4.699;-3.278;0.089;0.59;1.5;4.8;25.7;52.54;4751;2018-04-16 23:31:25:057
-5.094;-11.43;6.534;-3.295;-9.223;0.51;-2.147;-2.352;4.699;-2.794;1.002;0.623;1.5;4.8;25.7;52.54;4761;2018-04-16 23:31:25:067
-5.51;-11.219;7.284;-3.407;-9.196;-0.062;-1.768;-2.019;7.84;-2.074;2.403;0.468;1.6;4.7;25.6;52.54;4771;2018-04-16 23:31:25:077
-5.51;-11.219;7.284;-3.407;-9.196;-0.062;-1.768;-2.019;7.84;-2.074;2.403;0.468;1.6;4.7;25.6;52.54;4781;2018-04-16 23:31:25:087
-5.51;-11.219;7.284;-3.468;-9.153;-0.601;-1.635;-1.625;6.282;-1.8;2.981;0.4;1.5;4.5;25.5;52.54;4791;2018-04-16 23:31:25:097
-5.449;-10.709;5.667;-3.468;-9.153;-0.601;-1.635;-1.625;6.282;-1.642;3.316;0.247;1.5;4.3;25.5;52.54;4801;2018-04-16 23:31:25:107
-5.066;-10.253;4.22;-3.445;-9.112;-1.125;-1.621;-1.141;5.345;-1.448;3.703;0.176;1.5;4.3;25.5;52.54;4811;2018-04-16 23:31:25:117
-5.066;-10.253;4.22;-3.445;-9.112;-1.125;-1.621;-1.141;5.345;-1.268;3.922;0.117;1.0;2.8;25.8;52.54;4822;2018-04-16 23:31:25:128
-4.395;-9.846;0.867;-3.368;-9.069;-1.606;-1.027;-0.777;2.473;-1.147;3.012;0.198;0.2;1.8;26.0;52.54;4830;2018-04-16 23:31:25:136
-2.078;-10.177;-4.501;-3.368;-9.069;-1.606;-1.027;-0.777;2.473;-0.869;1.481;0.272;-1.4;0.2;25.8;52.54;4841;2018-04-16 23:31:25:147
-2.078;-10.177;-4.501;-3.362;-9.021;-1.869;1.457;-0.954;-2.084;-0.869;1.481;0.272;-1.4;0.2;25.8;52.54;4851;2018-04-16 23:31:25:157
-1.812;-9.492;-2.677;-3.362;-9.021;-1.869;1.457;-0.954;-2.084;-0.563;0.189;0.224;-2.9;-1.5;26.4;52.54;4860;2018-04-16 23:31:25:166
-1.812;-9.492;-2.677;-3.378;-8.991;-1.981;1.422;0.083;1.345;-0.551;0.15;0.126;-2.9;-1.5;26.4;52.54;4871;2018-04-16 23:31:25:177
-1.687;-8.672;0.464;-3.378;-8.991;-1.981;1.422;0.083;1.345;-0.549;0.659;-0.004;-3.2;-1.7;26.5;52.54;4881;2018-04-16 23:31:25:187
-1.587;-8.865;1.253;-3.318;-8.978;-2.132;1.731;0.114;3.386;-0.463;1.484;-0.241;-3.2;-1.7;26.5;52.54;4891;2018-04-16 23:31:25:197
-1.992;-9.024;0.84;-3.318;-8.978;-2.132;1.731;0.114;3.386;-0.352;1.53;-0.326;-4.2;-2.5;25.7;52.54;4902;2018-04-16 23:31:25:208
-1.992;-9.024;0.84;-3.19;-8.989;-2.279;0.792;-0.03;3.077;-0.352;1.53;-0.326;-4.2;-2.5;25.7;52.54;4911;2018-04-16 23:31:25:217
-2.82;-8.845;0.575;-3.19;-8.989;-2.279;0.792;-0.03;3.077;-0.288;1.344;-0.258;-5.0;-2.9;26.8;52.54;4920;2018-04-16 23:31:25:226
-1.761;-8.222;0.467;-3.094;-8.991;-2.4;0.738;0.525;2.815;-0.302;1.158;-0.159;-5.0;-2.9;26.8;52.54;4931;2018-04-16 23:31:25:237
-1.992;-7.994;0.622;-3.094;-8.991;-2.4;0.738;0.525;2.815;-0.261;0.616;-0.205;-6.4;-4.0;24.4;52.54;4942;2018-04-16 23:31:25:248
-1.992;-7.994;0.622;-3.026;-8.99;-2.488;0.537;1.139;2.782;-0.261;0.616;-0.205;-6.4;-4.0;24.4;52.54;4951;2018-04-16 23:31:25:257
-3.967;-7.357;-1.238;-3.026;-8.99;-2.488;0.537;1.139;2.782;-0.401;0.342;-0.169;-6.4;-4.0;24.4;52.54;4961;2018-04-16 23:31:25:267
-3.967;-7.357;-1.238;-3.007;-8.963;-2.606;-1.225;2.142;1.761;-0.601;0.164;-0.062;-5.6;-3.9;26.2;52.54;4970;2018-04-16 23:31:25:276
-4.59;-5.629;0.375;-3.007;-8.963;-2.606;-1.225;2.142;1.761;-0.955;-0.053;0.154;-5.6;-3.9;26.2;52.54;4981;2018-04-16 23:31:25:287
-5.096;-3.901;1.452;-3.057;-8.884;-2.811;-1.691;4.354;3.901;-1.247;0.17;0.321;-6.1;-3.6;25.7;52.54;4991;2018-04-16 23:31:25:297
-5.096;-3.901;1.452;-3.057;-8.884;-2.811;-1.691;4.354;3.901;-1.194;0.331;0.293;-6.5;-4.3;25.5;52.54;5000;2018-04-16 23:31:25:306
-5.215;-3.352;1.322;-3.09;-8.797;-3.038;-2.125;5.446;4.359;-1.194;0.331;0.293;-6.5;-4.3;25.5;52.54;5010;2018-04-16 23:31:25:316
-4.519;-3.464;1.01;-3.09;-8.797;-3.038;-2.125;5.446;4.359;-0.815;0.411;0.186;-6.7;-5.0;25.6;52.54;5021;2018-04-16 23:31:25:327
-4.519;-3.464;1.01;-3.096;-8.75;-3.165;-0.967;5.158;3.932;-0.389;0.316;0.13;-6.7;-5.0;25.6;52.54;5030;2018-04-16 23:31:25:336
-2.995;-3.903;0.083;-3.096;-8.75;-3.165;-0.967;5.158;3.932;0.095;0.181;0.105;-6.3;-4.9;26.2;52.54;5040;2018-04-16 23:31:25:346
-0.912;-4.444;-1.528;-3.108;-8.763;-3.117;1.4;4.534;2.306;0.702;-0.082;0.099;-6.3;-4.9;26.2;52.54;5050;2018-04-16 23:31:25:356
-0.912;-4.444;-1.528;-3.108;-8.763;-3.117;1.4;4.534;2.306;1.07;-0.439;0.071;-6.6;-4.9;25.3;52.54;5060;2018-04-16 23:31:25:366
0.654;-5.434;-3.23;-3.141;-8.817;-2.928;3.794;3.383;-0.301;1.07;-0.439;0.071;-6.6;-4.9;25.3;52.54;5070;2018-04-16 23:31:25:376
2.44;-7.373;-4.729;-3.141;-8.817;-2.928;3.794;3.383;-0.301;1.175;-0.794;0.051;-6.2;-4.6;25.7;59.56;5080;2018-04-16 23:31:25:386
2.44;-7.373;-4.729;-3.178;-8.886;-2.665;6.118;0.929;-2.283;1.21;-1.275;0.035;-6.2;-4.6;25.7;59.56;5090;2018-04-16 23:31:25:396
3.512;-9.084;-5.043;-3.178;-8.886;-2.665;6.118;0.929;-2.283;1.151;-1.9;-0.095;-6.2;-4.6;25.7;59.56;5100;2018-04-16 23:31:25:406
2.0;-11.28;-5.55;-3.245;-8.952;-2.345;5.979;-1.426;-2.854;1.035;-2.01;-0.233;-6.8;-4.8;25.8;59.56;5110;2018-04-16 23:31:25:416
2.0;-11.28;-5.55;-3.245;-8.952;-2.345;5.979;-1.426;-2.854;0.815;-1.943;-0.261;-7.1;-4.8;25.7;59.56;5121;2018-04-16 23:31:25:427
0.759;-13.531;-5.917;-3.287;-8.996;-2.104;4.046;-4.534;-3.813;0.514;-1.804;-0.187;-7.1;-4.8;25.7;59.56;5131;2018-04-16 23:31:25:437
0.834;-12.607;-5.296;-3.287;-8.996;-2.104;4.046;-4.534;-3.813;0.072;-1.251;-0.154;-7.3;-4.9;25.7;59.56;5141;2018-04-16 23:31:25:447
0.834;-12.607;-5.296;-3.306;-9.011;-2.009;4.119;-3.035;-3.221;0.072;-1.251;-0.154;-7.3;-4.9;25.7;59.56;5151;2018-04-16 23:31:25:457
0.334;-10.836;-5.582;-3.306;-9.011;-2.009;4.119;-3.035;-3.221;-0.365;-0.578;-0.423;-7.2;-4.8;25.5;59.56;5161;2018-04-16 23:31:25:467
-0.195;-10.022;-6.989;-3.226;-9.025;-2.075;3.031;-0.997;-4.914;-0.605;-0.115;-0.607;-7.2;-4.8;25.5;59.56;5171;2018-04-16 23:31:25:477
-2.251;-9.085;-8.849;-3.226;-9.025;-2.075;3.031;-0.997;-4.914;-0.733;0.149;-0.728;-7.2;-4.7;25.5;59.56;5181;2018-04-16 23:31:25:487
-2.251;-9.085;-8.849;-3.088;-9.042;-2.208;0.062;0.231;-6.462;-0.53;-0.136;-0.737;-7.2;-4.7;25.5;59.56;5191;2018-04-16 23:31:25:497
-4.958;-8.677;-7.08;-3.088;-9.042;-2.208;0.062;0.231;-6.462;-0.139;-0.579;-0.595;-7.2;-4.7;25.4;59.56;5200;2018-04-16 23:31:25:506
-8.086;-9.633;-2.109;-3.007;-9.071;-2.2;-3.781;-0.036;-1.569;-0.139;-0.579;-0.595;-7.2;-4.7;25.4;59.56;5211;2018-04-16 23:31:25:517
-8.086;-9.633;-2.109;-3.007;-9.071;-2.2;-3.781;-0.036;-1.569;0.376;-0.865;-0.258;-7.1;-4.6;25.3;59.56;5221;2018-04-16 23:31:25:527
-11.335;-10.77;-0.846;-3.011;-9.097;-2.085;-8.324;-1.673;1.239;0.385;-0.641;-0.062;-7.1;-4.6;25.3;59.56;5230;2018-04-16 23:31:25:536
-11.335;-10.77;-0.846;-3.011;-9.097;-2.085;-8.324;-1.673;1.239;0.385;-0.641;-0.062;-7.1;-4.6;25.3;59.56;5241;2018-04-16 23:31:25:547
-12.822;-12.306;-1.263;-3.064;-9.084;-2.064;-8.771;-3.786;0.986;-0.002;-0.286;0.226;-6.8;-4.4;25.4;59.56;5251;2018-04-16 23:31:25:557
-7.944;-13.659;0.059;-3.099;-9.073;-2.063;-4.845;-4.586;2.121;-0.131;-0.436;0.286;-6.8;-4.4;25.4;59.56;5262;2018-04-16 23:31:25:568
-7.944;-13.659;0.059;-3.099;-9.073;-2.063;-4.845;-4.586;2.121;-0.131;-0.436;0.286;-6.6;-4.2;25.4;59.56;5271;2018-04-16 23:31:25:577
-2.982;-9.783;2.806;-3.114;-9.085;-1.985;0.132;-0.698;4.791;0.435;-0.009;-0.043;-6.3;-4.2;25.4;59.56;5281;2018-04-16 23:31:25:587
-2.72;-5.393;3.26;-3.114;-9.085;-1.985;0.132;-0.698;4.791;0.385;0.871;-0.031;-6.3;-4.2;25.4;59.56;5290;2018-04-16 23:31:25:596
-2.72;-5.393;3.26;-3.067;-9.099;-1.992;0.418;4.187;4.544;0.26;1.322;-0.002;-6.1;-4.0;25.4;59.56;5300;2018-04-16 23:31:25:606
-3.036;-5.125;1.907;-3.067;-9.099;-1.992;0.418;4.187;4.544;0.081;1.206;0.116;-6.1;-4.0;25.4;59.56;5310;2018-04-16 23:31:25:616
-4.307;-7.179;1.498;-3.043;-9.095;-2.049;-0.894;2.799;3.689;-0.005;0.913;0.32;-5.8;-3.7;25.4;59.56;5320;2018-04-16 23:31:25:626
-4.307;-7.179;1.498;-3.043;-9.095;-2.049;-0.894;2.799;3.689;-0.005;0.913;0.32;-5.8;-3.7;25.4;59.56;5330;2018-04-16 23:31:25:636
-4.768;-9.385;1.663;-3.126;-9.053;-2.107;-1.642;-0.332;3.77;-0.222;0.577;0.712;-5.7;-3.4;25.3;59.56;5340;2018-04-16 23:31:25:646
-5.06;-11.577;1.492;-3.126;-9.053;-2.107;-1.642;-0.332;3.77;-0.356;0.378;0.887;-5.7;-3.4;25.3;59.56;5350;2018-04-16 23:31:25:656
-4.871;-12.073;0.995;-3.285;-8.976;-2.195;-1.691;-2.849;3.509;-0.451;0.12;0.997;-5.4;-3.1;25.5;59.56;5361;2018-04-16 23:31:25:667
-4.871;-12.073;0.995;-3.38;-8.931;-2.234;-1.375;-3.213;3.064;-0.531;-0.271;0.982;-5.4;-3.1;25.5;59.56;5371;2018-04-16 23:31:25:677
-4.463;-11.995;0.832;-3.38;-8.931;-2.234;-1.375;-3.213;3.064;-0.531;-0.271;0.982;-5.3;-3.0;25.5;59.56;5380;2018-04-16 23:31:25:686
-3.229;-10.491;0.982;-3.563;-8.853;-2.259;0.334;-1.639;3.241;-0.607;-1.151;0.742;-5.2;-2.8;25.5;59.56;5391;2018-04-16 23:31:25:697
-2.303;-8.847;1.31;-3.563;-8.853;-2.259;0.334;-1.639;3.241;-0.464;-1.648;0.527;-5.1;-2.7;25.5;56.48;5400;2018-04-16 23:31:25:706
-2.303;-8.847;1.31;-3.716;-8.809;-2.183;1.684;0.24;3.527;-0.315;-1.795;0.413;-5.1;-2.7;25.5;56.48;5410;2018-04-16 23:31:25:716
-1.492;-8.155;1.456;-3.716;-8.809;-2.183;1.684;0.24;3.527;-0.138;-1.87;0.298;-4.9;-2.6;25.4;56.48;5421;2018-04-16 23:31:25:727
-0.745;-8.258;0.755;-3.84;-8.793;-2.027;2.763;0.675;2.903;0.226;-2.032;0.189;-4.9;-2.6;25.4;56.48;5430;2018-04-16 23:31:25:736
-0.645;-9.155;0.933;-3.84;-8.793;-2.027;2.763;0.675;2.903;1.39;-2.902;0.114;-4.7;-2.5;25.5;56.48;5441;2018-04-16 23:31:25:747
-0.645;-9.155;0.933;-3.944;-8.865;-1.422;3.122;-0.924;2.319;2.491;-3.566;-0.046;-4.7;-2.5;25.5;56.48;5451;2018-04-16 23:31:25:757
-1.159;-10.594;0.676;-3.944;-8.865;-1.422;3.122;-0.924;2.319;2.921;-3.653;-0.265;-4.6;-2.5;25.5;56.48;5460;2018-04-16 23:31:25:766
-1.632;-10.645;0.706;-3.947;-8.955;-0.634;2.315;-1.69;1.34;2.805;-3.377;-0.501;-4.6;-2.5;25.5;56.48;5471;2018-04-16 23:31:25:777
-1.632;-10.645;0.706;-3.947;-8.955;-0.634;2.315;-1.69;1.34;2.805;-3.377;-0.501;-4.6;-2.5;25.5;56.48;5481;2018-04-16 23:31:25:787
-2.456;-9.351;1.465;-3.862;-9.014;-0.012;1.405;-0.336;1.478;2.36;-2.484;-0.53;-4.2;-2.3;25.5;56.48;5491;2018-04-16 23:31:25:797
-2.456;-9.351;1.465;-3.862;-9.014;-0.012;1.405;-0.336;1.478;1.995;-0.461;-0.33;-4.2;-2.3;25.5;56.48;5501;2018-04-16 23:31:25:807
-2.185;-8.059;-0.922;-3.796;-9.038;0.295;2.155;1.274;-1.019;1.587;0.859;-0.42;-3.8;-2.0;25.4;56.48;5517;2018-04-16 23:31:25:823
-2.185;-8.059;-0.922;-3.703;-9.074;0.361;1.415;0.906;-1.322;1.086;1.866;-0.593;-3.1;-1.3;25.3;56.48;5523;2018-04-16 23:31:25:829
-2.252;-8.589;-0.656;-3.703;-9.074;0.361;1.415;0.906;-1.322;1.086;1.866;-0.593;-3.1;-1.3;25.3;56.48;5530;2018-04-16 23:31:25:836
-2.252;-8.589;-0.656;-3.703;-9.074;0.361;1.415;0.906;-1.322;1.029;1.923;-0.551;-2.3;-0.2;25.7;56.48;5541;2018-04-16 23:31:25:847
-2.405;-9.358;0.053;-3.611;-9.108;0.426;1.206;-0.25;-0.373;1.305;1.593;-0.517;-2.3;-0.2;25.7;56.48;5551;2018-04-16 23:31:25:857
-2.405;-9.358;0.053;-3.611;-9.108;0.426;1.206;-0.25;-0.373;1.305;1.593;-0.517;-2.3;-0.2;25.7;56.48;5561;2018-04-16 23:31:25:867
-2.52;-10.022;-0.575;-3.535;-9.128;0.598;1.015;-0.894;-1.172;1.506;1.349;-0.464;-2.1;0.5;25.2;56.48;5570;2018-04-16 23:31:25:876
-2.835;-9.779;-1.368;-3.535;-9.128;0.598;1.015;-0.894;-1.172;1.483;0.649;-0.364;-2.2;1.2;24.6;56.48;5580;2018-04-16 23:31:25:886
-2.835;-9.779;-1.368;-3.48;-9.133;0.807;0.487;-0.406;-2.02;1.25;0.156;-0.263;-2.2;1.2;24.6;56.48;5591;2018-04-16 23:31:25:897
-2.945;-8.63;-0.973;-3.48;-9.133;0.807;0.487;-0.406;-2.02;1.005;-0.22;-0.116;-1.9;2.7;24.7;56.48;5601;2018-04-16 23:31:25:907
-2.85;-7.852;-0.187;-3.459;-9.122;0.994;0.613;1.141;-1.555;0.828;-0.486;-0.035;-1.9;2.7;24.7;56.48;5610;2018-04-16 23:31:25:916
-2.85;-7.852;-0.187;-3.459;-9.122;0.994;0.613;1.141;-1.555;0.828;-0.486;-0.035;-1.9;2.7;24.7;56.48;5621;2018-04-16 23:31:25:927
-2.886;-8.083;0.375;-3.443;-9.106;1.179;0.596;0.864;-0.608;0.765;-0.685;0.004;-2.0;3.3;24.8;56.48;5631;2018-04-16 23:31:25:937
-2.512;-8.624;0.994;-3.443;-9.106;1.179;0.596;0.864;-0.608;0.744;-0.584;0.022;-1.5;4.1;24.8;56.48;5641;2018-04-16 23:31:25:947
-2.512;-8.624;0.994;-3.428;-9.09;1.34;1.202;-0.006;0.053;0.666;-0.386;0.002;-1.5;4.1;24.8;56.48;5650;2018-04-16 23:31:25:956
-2.233;-9.297;1.505;-3.428;-9.09;1.34;1.202;-0.006;0.053;0.555;-0.04;-0.051;-1.2;4.1;24.4;56.48;5661;2018-04-16 23:31:25:967
-2.133;-9.535;1.39;-3.406;-9.082;1.441;1.227;-0.5;0.038;0.637;0.145;-0.093;-1.3;4.7;24.7;56.48;5670;2018-04-16 23:31:25:976
-2.133;-9.535;1.39;-3.406;-9.082;1.441;1.227;-0.5;0.038;0.909;0.044;-0.126;-1.3;4.7;24.7;56.48;5680;2018-04-16 23:31:25:986
-1.896;-9.251;1.478;-3.372;-9.068;1.605;1.476;-0.183;-0.126;0.909;0.044;-0.126;-1.1;4.8;24.1;56.48;5690;2018-04-16 23:31:25:996
-2.072;-9.68;0.534;-3.372;-9.068;1.605;1.476;-0.183;-0.126;1.517;-0.211;-0.191;-1.1;4.8;24.1;56.48;5701;2018-04-16 23:31:26:007
-2.072;-9.68;0.534;-3.312;-9.029;1.918;1.115;-0.718;-1.882;1.841;-0.379;-0.239;-1.1;5.5;24.4;56.48;5711;2018-04-16 23:31:26:017
-2.687;-9.804;-1.561;-3.312;-9.029;1.918;1.115;-0.718;-1.882;1.99;-0.646;-0.274;-1.1;5.5;24.4;55.08;5721;2018-04-16 23:31:26:027
-3.673;-10.143;-3.857;-3.224;-8.966;2.323;-0.133;-1.054;-5.171;2.022;-0.987;-0.303;-0.8;6.3;24.0;55.08;5731;2018-04-16 23:31:26:037
-3.673;-10.143;-3.857;-3.224;-8.966;2.323;-0.133;-1.054;-5.171;1.943;-1.241;-0.315;-0.8;6.3;24.0;55.08;5741;2018-04-16 23:31:26:047
-4.112;-10.584;-8.46;-3.11;-8.899;2.704;-1.002;-1.685;-11.164;1.509;-1.117;-0.298;-0.7;6.5;23.7;55.08;5750;2018-04-16 23:31:26:056
-3.199;-10.9;-4.202;-3.11;-8.899;2.704;-1.002;-1.685;-11.164;0.45;-0.244;-0.211;-0.3;6.9;23.7;55.08;5761;2018-04-16 23:31:26:067
-3.199;-10.9;-4.202;-3.109;-8.915;2.651;0.393;-2.03;-5.152;-0.705;1.15;-0.073;-0.3;6.9;23.7;55.08;5772;2018-04-16 23:31:26:078
-1.508;-11.422;0.633;-3.109;-8.915;2.651;0.393;-2.03;-5.152;-1.289;2.232;-0.007;-0.6;7.2;23.8;55.08;5781;2018-04-16 23:31:26:087
-0.243;-11.988;1.118;-3.221;-8.982;2.262;2.676;-2.879;-0.902;-1.236;2.677;-0.154;-0.6;7.2;23.8;55.08;5790;2018-04-16 23:31:26:096
-0.243;-11.988;1.118;-3.221;-8.982;2.262;2.676;-2.879;-0.902;-1.048;2.337;-0.291;-0.8;7.1;23.9;55.08;5801;2018-04-16 23:31:26:107
-0.387;-12.535;-0.063;-3.267;-9.045;1.921;2.88;-3.49;-1.984;-0.957;1.664;-0.325;-0.8;7.1;23.9;55.08;5810;2018-04-16 23:31:26:116
-0.255;-12.85;-0.23;-3.267;-9.045;1.921;2.88;-3.49;-1.984;-0.968;0.77;-0.323;-1.1;7.5;23.8;55.08;5821;2018-04-16 23:31:26:127
-0.255;-12.85;-0.23;-3.236;-9.101;1.694;2.99;-3.906;-1.856;-0.968;0.77;-0.323;-1.1;7.5;23.8;55.08;5830;2018-04-16 23:31:26:136
-0.336;-13.125;0.043;-3.236;-9.101;1.694;2.99;-3.906;-1.856;-1.009;-0.498;-0.308;-1.4;7.9;23.6;55.08;5841;2018-04-16 23:31:26:147
-1.516;-12.208;0.159;-3.155;-9.153;1.561;2.38;-3.4;-1.351;-1.035;-1.194;-0.285;-1.4;7.9;23.6;55.08;5851;2018-04-16 23:31:26:157
-3.242;-11.763;-1.04;-3.155;-9.153;1.561;2.38;-3.4;-1.351;-1.08;-1.668;-0.297;-1.7;8.3;23.3;55.08;5860;2018-04-16 23:31:26:166
-3.242;-11.763;-1.04;-3.046;-9.205;1.47;-1.435;-2.443;-3.967;-1.133;-1.946;-0.283;-1.7;8.3;23.3;55.08;5871;2018-04-16 23:31:26:177
-5.946;-11.633;-4.275;-3.046;-9.205;1.47;-1.435;-2.443;-3.967;-1.133;-1.946;-0.283;-1.8;8.4;23.2;55.08;5880;2018-04-16 23:31:26:186
-9.272;-11.764;-6.506;-2.969;-9.254;1.308;-6.262;-2.535;-9.248;-1.412;-1.966;-0.159;-1.8;8.7;23.1;55.08;5890;2018-04-16 23:31:26:196
-7.198;-11.775;-1.341;-2.969;-9.254;1.308;-6.262;-2.535;-9.248;-2.706;-1.128;0.293;-1.9;8.7;23.0;55.08;5901;2018-04-16 23:31:26:207
-7.198;-11.775;-1.341;-3.021;-9.296;0.786;-3.325;-2.542;-0.266;-3.487;-0.66;0.475;-1.9;8.7;23.0;55.08;5910;2018-04-16 23:31:26:216
-4.878;-12.061;4.75;-3.021;-9.296;0.786;-3.325;-2.542;-0.266;-3.741;-0.288;0.425;-1.9;8.7;23.0;55.08;5921;2018-04-16 23:31:26:227
-4.515;-11.978;6.815;-3.085;-9.308;0.112;-1.331;-2.78;6.586;-3.454;0.48;0.264;-1.9;8.7;23.0;55.08;5930;2018-04-16 23:31:26:236
-4.515;-11.978;6.815;-3.085;-9.308;0.112;-1.331;-2.78;6.586;-3.128;1.052;0.294;-2.0;8.6;23.0;55.08;5941;2018-04-16 23:31:26:247
-4.685;-11.769;6.806;-3.138;-9.276;-0.52;-1.547;-2.492;7.326;-2.798;1.577;0.347;-2.0;8.6;23.0;55.08;5951;2018-04-16 23:31:26:257
-4.685;-11.769;6.806;-3.138;-9.276;-0.52;-1.547;-2.492;7.326;-2.798;1.577;0.347;-2.0;8.6;23.0;55.08;5961;2018-04-16 23:31:26:267
-4.841;-11.103;6.808;-3.15;-9.221;-1.106;-1.691;-1.882;7.914;-2.27;2.622;0.312;-2.1;8.4;23.1;55.08;5971;2018-04-16 23:31:26:277
-4.841;-11.103;6.808;-3.15;-9.221;-1.106;-1.691;-1.882;7.914;-1.773;3.625;0.099;-2.1;8.4;23.1;55.08;5980;2018-04-16 23:31:26:286
-4.845;-10.716;5.562;-3.054;-9.174;-1.636;-1.79;-1.44;6.601;-1.403;4.044;0.009;-2.3;7.8;23.1;55.08;5991;2018-04-16 23:31:26:297
-4.683;-10.457;3.056;-3.054;-9.174;-1.636;-1.79;-1.44;6.601;-0.919;3.859;-0.013;-3.6;5.6;23.3;55.08;6002;2018-04-16 23:31:26:308
-4.683;-10.457;3.056;-3.054;-9.174;-1.636;-1.79;-1.44;6.601;-0.727;3.421;-0.021;-3.6;5.6;23.3;55.08;6015;2018-04-16 23:31:26:321
-4.027;-10.709;-0.801;-2.913;-9.142;-2.026;-1.114;-1.567;1.225;-0.727;3.421;-0.021;-3.6;5.6;23.3;55.08;6023;2018-04-16 23:31:26:329
-1.633;-10.574;-5.541;-2.913;-9.142;-2.026;-1.114;-1.567;1.225;-0.494;2.634;-0.038;-4.5;4.3;23.2;55.08;6031;2018-04-16 23:31:26:337
-1.633;-10.574;-5.541;-2.953;-9.114;-2.093;1.758;-1.08;-1.995;-0.494;2.634;-0.038;-4.5;4.3;23.2;54.35;6040;2018-04-16 23:31:26:346
-0.535;-9.592;-1.082;-2.953;-9.114;-2.093;1.758;-1.08;-1.995;-0.616;-1.152;0.089;-6.4;2.8;23.8;54.35;6051;2018-04-16 23:31:26:357
-1.223;-8.792;3.154;-2.911;-9.094;-2.236;1.687;0.302;5.391;-0.953;0.016;-0.145;-6.4;2.8;23.8;54.35;6061;2018-04-16 23:31:26:367
-2.289;-7.963;1.531;-2.911;-9.094;-2.236;1.687;0.302;5.391;-1.01;1.511;-0.321;-6.7;1.9;24.9;54.35;6071;2018-04-16 23:31:26:377
-2.289;-7.963;1.531;-2.747;-9.071;-2.517;0.42;1.393;3.345;-0.783;2.458;-0.271;-7.7;1.3;23.8;54.35;6081;2018-04-16 23:31:26:387
-2.909;-7.155;0.807;-2.747;-9.071;-2.517;0.42;1.393;3.345;-0.607;1.994;-0.214;-7.7;1.3;23.8;54.35;6091;2018-04-16 23:31:26:397
-2.909;-7.155;0.807;-2.619;-9.054;-2.707;-0.558;2.206;3.349;-0.419;1.626;-0.15;-7.7;1.3;23.8;54.35;6101;2018-04-16 23:31:26:407
-3.066;-6.683;-0.081;-2.575;-9.049;-2.767;-0.48;2.382;2.353;-0.288;1.289;-0.094;-8.5;0.9;24.8;54.35;6111;2018-04-16 23:31:26:417
-3.828;-6.598;-0.271;-2.575;-9.049;-2.767;-0.48;2.382;2.353;-0.301;0.59;-0.016;-9.1;0.5;25.1;54.35;6121;2018-04-16 23:31:26:427
-2.421;-5.106;1.465;-2.571;-9.023;-2.853;-0.287;3.411;3.584;-0.595;-0.197;0.169;-9.1;0.5;25.1;54.35;6131;2018-04-16 23:31:26:437
-3.108;-4.215;2.283;-2.571;-9.023;-2.853;-0.287;3.411;3.584;-0.734;-0.304;0.056;-9.9;-0.3;24.1;54.35;6140;2018-04-16 23:31:26:446
-3.108;-4.215;2.283;-2.595;-8.978;-2.971;-1.178;5.082;5.192;-0.734;-0.304;0.056;-9.9;-0.3;24.1;54.35;6150;2018-04-16 23:31:26:456
-4.654;-3.126;1.585;-2.595;-8.978;-2.971;-1.178;5.082;5.192;-0.889;0.165;-0.108;-9.1;-0.4;24.5;54.35;6161;2018-04-16 23:31:26:467
-5.519;-2.588;1.337;-2.562;-8.928;-3.146;-2.725;6.226;4.44;-0.918;0.364;-0.097;-9.1;-0.4;24.5;54.35;6170;2018-04-16 23:31:26:476
-5.519;-2.588;1.337;-2.562;-8.928;-3.146;-2.725;6.226;4.44;-0.805;0.4;-0.009;-9.1;-0.4;24.5;54.35;6181;2018-04-16 23:31:26:487
-5.452;-2.549;1.223;-2.551;-8.88;-3.287;-2.698;6.322;4.406;-0.557;0.418;0.16;-9.9;-0.7;25.6;54.35;6191;2018-04-16 23:31:26:497
-4.277;-2.889;0.796;-2.551;-8.88;-3.287;-2.698;6.322;4.406;-0.557;0.418;0.16;-9.9;-0.7;25.6;54.35;6200;2018-04-16 23:31:26:506
-2.608;-3.666;-0.7;-2.621;-8.859;-3.289;-0.585;5.476;3.181;0.162;0.255;0.539;-9.9;-1.5;24.7;54.35;6210;2018-04-16 23:31:26:516
-1.5;-4.319;-1.912;-2.621;-8.859;-3.289;-0.585;5.476;3.181;0.674;-0.105;0.699;-10.2;-1.1;25.0;54.35;6221;2018-04-16 23:31:26:527
-1.5;-4.319;-1.912;-2.764;-8.872;-3.135;1.837;4.323;0.714;0.896;-0.447;0.717;-10.2;-1.1;25.0;54.35;6230;2018-04-16 23:31:26:536
0.224;-5.255;-3.575;-2.764;-8.872;-3.135;1.837;4.323;0.714;1.014;-0.784;0.639;-10.0;-0.9;24.7;54.35;6241;2018-04-16 23:31:26:547
1.125;-6.297;-4.744;-2.921;-8.903;-2.894;4.046;2.606;-1.85;1.047;-1.253;0.445;-10.0;-0.9;24.7;54.35;6251;2018-04-16 23:31:26:557
1.125;-6.297;-4.744;-2.921;-8.903;-2.894;4.046;2.606;-1.85;1.047;-1.253;0.445;-10.0;-0.9;24.7;54.35;6261;2018-04-16 23:31:26:567
1.179;-8.417;-5.339;-3.029;-8.956;-2.605;3.722;-0.636;-2.897;0.97;-2.166;0.011;-9.8;-0.8;24.7;54.35;6271;2018-04-16 23:31:26:577
-0.442;-12.93;-6.802;-3.029;-8.956;-2.605;3.722;-0.636;-2.897;0.649;-2.574;-0.353;-9.8;-0.8;24.7;54.35;6281;2018-04-16 23:31:26:587
-0.442;-12.93;-6.802;-3.088;-9.0;-2.373;2.348;-5.584;-5.2;0.034;-2.177;-0.318;-10.3;-1.0;24.8;54.35;6291;2018-04-16 23:31:26:597
-0.102;-16.844;-7.488;-3.088;-9.0;-2.373;2.348;-5.584;-5.2;0.034;-2.177;-0.318;-10.3;-1.0;24.8;54.35;6301;2018-04-16 23:31:26:607
0.812;-15.356;-7.147;-3.112;-9.0;-2.341;3.457;-7.64;-4.718;-0.327;-1.444;-0.215;-10.5;-1.1;25.0;54.35;6310;2018-04-16 23:31:26:616
0.254;-13.37;-8.668;-3.112;-9.0;-2.341;3.457;-7.64;-4.718;-0.61;-0.061;-0.248;-10.5;-1.1;25.1;54.35;6321;2018-04-16 23:31:26:627
0.254;-13.37;-8.668;-3.04;-8.99;-2.473;2.868;-3.612;-6.95;-0.628;0.757;-0.48;-10.5;-1.1;25.1;54.35;6330;2018-04-16 23:31:26:636
-1.627;-10.576;-10.664;-3.04;-8.99;-2.473;2.868;-3.612;-6.95;-0.436;0.597;-0.59;-10.5;-1.2;25.1;54.35;6341;2018-04-16 23:31:26:647
-3.108;-8.595;-8.315;-2.908;-9.003;-2.58;0.188;-0.195;-6.928;-0.436;0.597;-0.59;-10.5;-1.2;25.1;54.35;6351;2018-04-16 23:31:26:657
-3.108;-8.595;-8.315;-2.908;-9.003;-2.58;0.188;-0.195;-6.928;0.175;-0.165;-0.597;-10.6;-1.2;25.2;54.35;6361;2018-04-16 23:31:26:667
-3.788;-7.564;-4.175;-2.828;-9.053;-2.494;-0.96;1.488;-1.681;0.65;-0.467;-0.53;-10.6;-1.2;25.2;54.35;6371;2018-04-16 23:31:26:677
-4.541;-7.193;-0.142;-2.828;-9.053;-2.494;-0.96;1.488;-1.681;1.076;-0.61;-0.37;-10.5;-1.3;25.2;59.28;6381;2018-04-16 23:31:26:687
-4.541;-7.193;-0.142;-2.789;-9.123;-2.272;-1.853;2.09;3.299;1.076;-0.61;-0.37;-10.5;-1.3;25.2;59.28;6391;2018-04-16 23:31:26:697
-4.714;-6.488;2.537;-2.789;-9.123;-2.272;-1.853;2.09;3.299;0.974;-0.356;-0.187;-10.5;-1.2;25.2;59.28;6400;2018-04-16 23:31:26:706
-5.041;-7.451;4.906;-2.785;-9.17;-2.08;-2.271;2.265;6.304;0.718;0.048;-0.05;-10.5;-1.2;25.2;59.28;6411;2018-04-16 23:31:26:717
-5.041;-7.451;4.906;-2.785;-9.17;-2.08;-2.271;2.265;6.304;0.52;0.487;0.09;-10.3;-1.1;25.3;59.28;6420;2018-04-16 23:31:26:726
-6.017;-10.6;3.619;-2.779;-9.183;-2.029;-3.238;-1.417;5.648;0.442;0.877;0.136;-10.3;-1.1;25.3;59.28;6430;2018-04-16 23:31:26:736
-7.852;-14.609;-3.682;-2.779;-9.183;-2.029;-3.238;-1.417;5.648;0.23;0.779;0.315;-10.1;-0.9;25.3;59.28;6440;2018-04-16 23:31:26:746
-7.852;-14.609;-3.682;-2.788;-9.182;-2.023;-5.202;-6.941;-7.966;0.23;0.779;0.315;-10.1;-0.9;25.3;59.28;6450;2018-04-16 23:31:26:756
-5.904;-17.019;-14.52;-2.788;-9.182;-2.023;-5.202;-6.941;-7.966;0.071;-0.808;0.627;-10.1;-0.7;25.3;59.28;6460;2018-04-16 23:31:26:766
-2.781;-10.001;2.692;-2.985;-9.14;-1.931;-0.027;-3.657;-2.361;-0.144;-2.602;0.782;-10.1;-0.7;25.3;59.28;6470;2018-04-16 23:31:26:776
-2.781;-10.001;2.692;-2.985;-9.14;-1.931;-0.027;-3.657;-2.361;-0.204;-1.987;0.403;-10.1;-0.7;25.3;59.28;6480;2018-04-16 23:31:26:786
-3.648;-6.731;6.027;-3.053;-9.13;-1.866;-1.155;3.193;6.81;0.217;0.334;0.002;-9.8;-0.4;25.3;59.28;6491;2018-04-16 23:31:26:797
-4.64;-5.563;2.637;-3.053;-9.13;-1.866;-1.155;3.193;6.81;0.359;1.175;0.159;-9.6;-0.1;25.3;59.28;6501;2018-04-16 23:31:26:807
-4.47;-5.958;1.237;-3.041;-9.133;-1.871;-1.527;3.488;3.406;0.359;1.175;0.159;-9.6;-0.1;25.3;59.28;6510;2018-04-16 23:31:26:816
-4.47;-5.958;1.237;-3.041;-9.133;-1.871;-1.527;3.488;3.406;0.338;1.3;0.424;-9.3;0.1;25.5;59.28;6521;2018-04-16 23:31:26:827
-4.954;-7.482;0.986;-3.087;-9.116;-1.879;-1.867;1.635;2.865;0.335;1.162;0.536;-9.3;0.1;25.5;59.28;6530;2018-04-16 23:31:26:836
-5.165;-9.41;1.003;-3.087;-9.116;-1.879;-1.867;1.635;2.865;0.331;0.942;0.649;-9.1;0.4;25.5;59.28;6541;2018-04-16 23:31:26:847
-5.165;-9.41;1.003;-3.183;-9.086;-1.866;-1.902;-0.678;2.798;0.303;0.766;0.707;-9.1;0.4;25.5;59.28;6550;2018-04-16 23:31:26:856
-4.859;-10.025;0.622;-3.183;-9.086;-1.866;-1.902;-0.678;2.798;0.226;0.632;0.704;-9.0;0.6;25.5;59.28;6561;2018-04-16 23:31:26:867
-4.859;-10.025;0.622;-3.286;-9.048;-1.872;-1.121;-0.809;2.001;0.105;0.464;0.656;-9.0;0.6;25.5;59.28;6570;2018-04-16 23:31:26:876
-4.179;-9.736;-0.05;-3.336;-9.028;-1.879;-0.677;-0.569;1.756;-0.043;0.21;0.589;-9.0;0.8;25.5;59.28;6581;2018-04-16 23:31:26:887
-4.179;-9.736;-0.05;-3.336;-9.028;-1.879;-0.677;-0.569;1.756;-0.043;0.21;0.589;-9.0;0.8;25.5;59.28;6591;2018-04-16 23:31:26:897
-3.79;-9.477;-0.101;-3.385;-9.008;-1.888;-0.405;-0.469;1.787;-0.18;-0.072;0.523;-9.0;1.0;25.4;59.28;6601;2018-04-16 23:31:26:907
-2.925;-9.325;-0.244;-3.479;-8.97;-1.897;0.555;-0.355;1.652;-0.353;-0.644;0.411;-9.1;1.3;25.5;59.28;6611;2018-04-16 23:31:26:917
-1.706;-9.437;-0.88;-3.479;-8.97;-1.897;0.555;-0.355;1.652;-0.151;-1.47;0.335;-9.1;1.4;25.5;59.28;6621;2018-04-16 23:31:26:927
-1.706;-9.437;-0.88;-3.583;-8.952;-1.789;2.309;-0.498;1.267;-0.151;-1.47;0.335;-9.1;1.4;25.5;59.28;6630;2018-04-16 23:31:26:936
-0.491;-9.606;0.261;-3.583;-8.952;-1.789;2.309;-0.498;1.267;1.123;-3.258;0.379;-9.2;1.7;25.6;59.28;6641;2018-04-16 23:31:26:947
-0.315;-9.938;1.361;-3.722;-8.985;-1.259;3.461;-0.984;2.088;1.72;-3.891;0.272;-9.2;1.7;25.6;59.28;6652;2018-04-16 23:31:26:958
-0.315;-9.938;1.361;-3.762;-9.008;-0.931;3.349;-0.858;2.601;1.939;-3.963;0.112;-9.2;1.7;25.6;59.28;6661;2018-04-16 23:31:26:967
-0.69;-9.774;1.873;-3.762;-9.008;-0.931;3.349;-0.858;2.601;1.98;-3.597;0.01;-9.1;2.0;25.5;59.28;6671;2018-04-16 23:31:26:977
-0.755;-9.607;1.871;-3.776;-9.045;-0.317;3.156;-0.339;2.155;1.9;-3.002;-0.007;-9.1;2.0;25.5;59.28;6680;2018-04-16 23:31:26:986
-0.281;-8.234;1.9;-3.776;-9.045;-0.317;3.156;-0.339;2.155;1.662;-1.896;-0.13;-8.9;2.3;25.6;59.28;6690;2018-04-16 23:31:26:996
-0.281;-8.234;1.9;-3.756;-9.058;0.127;3.325;0.939;1.727;1.662;-1.896;-0.13;-8.9;2.3;25.6;60.52;6701;2018-04-16 23:31:27:007
-0.636;-8.119;1.763;-3.756;-9.058;0.127;3.325;0.939;1.727;1.537;-0.985;-0.266;-8.5;2.8;25.7;60.52;6711;2018-04-16 23:31:27:017
-1.202;-8.551;0.947;-3.689;-9.078;0.389;2.487;0.527;0.557;1.388;0.469;-0.413;-8.1;3.2;25.7;60.52;6721;2018-04-16 23:31:27:027
-1.202;-8.551;0.947;-3.689;-9.078;0.389;2.487;0.527;0.557;1.277;1.217;-0.5;-8.1;3.2;25.7;60.52;6731;2018-04-16 23:31:27:037
-2.067;-9.461;0.043;-3.596;-9.109;0.506;1.287;-0.496;-0.621;1.205;1.627;-0.541;-7.5;3.9;25.7;60.52;6741;2018-04-16 23:31:27:047
-2.697;-9.729;-0.549;-3.596;-9.109;0.506;1.287;-0.496;-0.621;1.183;1.74;-0.497;-7.5;3.9;25.7;60.52;6751;2018-04-16 23:31:27:057
-2.697;-9.729;-0.549;-3.529;-9.13;0.592;0.667;-0.379;-1.654;1.148;1.504;-0.384;-6.6;5.6;26.3;60.52;6762;2018-04-16 23:31:27:068
-2.813;-9.276;-1.25;-3.529;-9.13;0.592;0.667;-0.379;-1.654;1.045;0.921;-0.293;-6.6;5.6;26.3;60.52;6771;2018-04-16 23:31:27:077
-2.837;-8.613;-1.299;-3.485;-9.139;0.704;0.648;0.526;-2.003;1.045;0.921;-0.293;-6.6;5.6;26.3;60.52;6781;2018-04-16 23:31:27:087
-2.837;-8.613;-1.299;-3.485;-9.139;0.704;0.648;0.526;-2.003;0.983;0.492;-0.241;-6.7;6.2;25.0;60.52;6791;2018-04-16 23:31:27:097
-3.187;-8.431;-0.804;-3.455;-9.137;0.87;0.268;0.705;-1.674;1.047;-0.182;-0.122;-6.7;6.7;25.0;60.52;6801;2018-04-16 23:31:27:107
-3.674;-9.134;-0.123;-3.455;-9.137;0.87;0.268;0.705;-1.674;1.047;-0.182;-0.122;-6.7;6.7;25.0;60.52;6811;2018-04-16 23:31:27:117
-3.734;-9.418;0.148;-3.439;-9.12;1.084;-0.277;-0.138;-1.094;1.126;-0.384;-0.043;-6.5;7.2;24.8;60.52;6821;2018-04-16 23:31:27:127
-3.734;-9.418;0.148;-3.439;-9.12;1.084;-0.277;-0.138;-1.094;1.062;-0.312;0.012;-6.5;7.2;24.8;60.52;6831;2018-04-16 23:31:27:137
-3.554;-9.357;0.387;-3.441;-9.095;1.272;-0.114;-0.262;-0.886;0.908;-0.132;0.045;-6.5;8.0;24.6;60.52;6840;2018-04-16 23:31:27:146
-3.554;-9.357;0.387;-3.441;-9.095;1.272;-0.114;-0.262;-0.886;0.779;0.042;0.056;-6.5;8.0;24.6;60.52;6850;2018-04-16 23:31:27:156
-3.479;-9.394;0.529;-3.454;-9.071;1.4;0.01;-0.373;-0.835;0.761;0.119;0.064;-6.5;8.0;24.6;60.52;6861;2018-04-16 23:31:27:167
-3.179;-9.504;0.642;-3.454;-9.071;1.4;0.01;-0.373;-0.835;0.881;0.073;0.07;-6.4;8.5;24.9;60.52;6872;2018-04-16 23:31:27:178
-3.179;-9.504;0.642;-3.463;-9.039;1.571;0.677;-0.364;-1.062;0.881;0.073;0.07;-6.4;8.5;24.9;60.52;6881;2018-04-16 23:31:27:187
-2.501;-9.348;0.306;-3.463;-9.039;1.571;0.677;-0.364;-1.062;1.243;-0.16;0.059;-6.3;9.2;24.2;60.52;6891;2018-04-16 23:31:27:197
-1.788;-9.079;-0.316;-3.452;-8.992;1.841;1.664;-0.086;-2.158;1.536;-0.435;0.042;-5.8;10.0;23.7;60.52;6901;2018-04-16 23:31:27:207
-1.788;-9.079;-0.316;-3.452;-8.992;1.841;1.664;-0.086;-2.158;1.636;-0.588;-0.013;-5.8;10.0;23.7;60.52;6911;2018-04-16 23:31:27:217
-1.287;-8.872;-1.663;-3.411;-8.935;2.169;2.125;0.063;-3.832;1.651;-0.738;-0.139;-5.6;11.0;23.8;60.52;6921;2018-04-16 23:31:27:227
-1.544;-9.512;-2.911;-3.411;-8.935;2.169;2.125;0.063;-3.832;1.651;-0.738;-0.139;-5.6;11.0;23.8;60.52;6931;2018-04-16 23:31:27:237
-1.775;-10.033;-3.355;-3.34;-8.891;2.444;1.716;-0.829;-5.598;1.371;-0.553;-0.228;-5.4;11.1;23.8;60.52;6941;2018-04-16 23:31:27:247
-1.775;-10.033;-3.355;-3.34;-8.891;2.444;1.716;-0.829;-5.598;0.59;0.099;-0.242;-5.4;11.1;23.8;60.52;6950;2018-04-16 23:31:27:256
-1.82;-10.772;-2.362;-3.303;-8.878;2.54;1.483;-1.894;-4.902;-0.032;0.618;-0.216;-5.2;11.9;23.9;60.52;6961;2018-04-16 23:31:27:267
-1.82;-10.772;-2.362;-3.303;-8.878;2.54;1.483;-1.894;-4.902;-0.032;0.618;-0.216;-5.2;11.9;23.9;60.52;6970;2018-04-16 23:31:27:276
-1.708;-11.513;-0.727;-3.316;-8.911;2.403;1.815;-2.752;-2.791;-0.586;1.113;-0.182;-5.3;12.2;22.5;60.52;6981;2018-04-16 23:31:27:287
-1.13;-11.894;-0.022;-3.316;-8.911;2.403;1.815;-2.752;-2.791;-0.586;1.113;-0.182;-5.3;12.2;22.5;60.52;6990;2018-04-16 23:31:27:296
-0.855;-12.052;0.115;-3.318;-8.954;2.233;2.464;-3.098;-2.118;-0.541;0.977;-0.303;-5.3;12.2;22.5;60.52;7000;2018-04-16 23:31:27:306
-0.855;-12.052;0.115;-3.318;-8.954;2.233;2.464;-3.098;-2.118;-0.541;0.977;-0.303;-5.7;12.4;23.3;60.52;7010;2018-04-16 23:31:27:316
-0.46;-12.258;-0.099;-3.267;-9.0;2.121;2.807;-3.258;-2.22;-0.462;0.733;-0.386;-5.8;12.3;23.2;54.03;7020;2018-04-16 23:31:27:326
-0.801;-13.572;-1.062;-3.267;-9.0;2.121;2.807;-3.258;-2.22;-0.252;0.007;-0.523;-5.8;12.3;23.2;54.03;7030;2018-04-16 23:31:27:336
-1.411;-13.241;-1.98;-3.156;-9.045;2.095;2.085;-4.464;-3.565;-0.216;-0.553;-0.572;-6.0;12.6;23.2;54.03;7041;2018-04-16 23:31:27:347
-1.411;-13.241;-1.98;-3.156;-9.045;2.095;2.085;-4.464;-3.565;-0.428;-0.767;-0.552;-6.0;12.6;23.2;54.03;7050;2018-04-16 23:31:27:356
-3.673;-12.07;-3.984;-3.034;-9.104;2.022;-0.639;-2.967;-6.006;-0.869;-0.7;-0.461;-6.2;13.0;23.0;54.03;7061;2018-04-16 23:31:27:367
-5.467;-11.149;-5.023;-3.034;-9.104;2.022;-0.639;-2.967;-6.006;-1.549;-0.32;-0.318;-6.2;13.0;23.0;54.03;7070;2018-04-16 23:31:27:376
-5.505;-11.158;-3.901;-2.981;-9.192;1.673;-2.474;-1.898;-6.385;-2.337;0.11;-0.215;-6.4;13.3;22.9;54.03;7081;2018-04-16 23:31:27:387
-5.505;-11.158;-3.901;-2.981;-9.192;1.673;-2.474;-1.898;-6.385;-2.955;0.32;-0.199;-6.4;13.3;22.9;54.03;7091;2018-04-16 23:31:27:397
-5.776;-11.611;-1.238;-2.955;-9.288;1.079;-2.821;-2.322;-2.317;-3.285;0.225;-0.166;-6.5;13.6;22.9;54.03;7102;2018-04-16 23:31:27:408
-5.241;-11.852;2.185;-2.955;-9.288;1.079;-2.821;-2.322;-2.317;-3.373;0.05;-0.103;-6.5;13.6;22.9;54.03;7111;2018-04-16 23:31:27:417
-4.537;-11.927;3.934;-2.942;-9.344;0.455;-1.919;-2.535;2.693;-3.291;0.048;-0.048;-6.7;13.7;22.9;54.03;7121;2018-04-16 23:31:27:427
-4.537;-11.927;3.934;-2.942;-9.344;0.455;-1.455;-2.596;4.492;-3.104;0.221;-0.043;-6.7;13.7;22.9;54.03;7131;2018-04-16 23:31:27:437
-4.445;-11.973;5.614;-2.933;-9.357;-0.126;-1.455;-2.596;4.492;-2.866;0.575;-0.066;-6.7;13.7;23.0;54.03;7141;2018-04-16 23:31:27:447
-4.608;-11.948;5.397;-2.933;-9.357;-0.126;-1.686;-2.596;5.799;-2.866;0.575;-0.066;-6.7;13.7;23.0;54.03;7151;2018-04-16 23:31:27:457
-4.608;-11.948;5.397;-2.903;-9.343;-0.664;-1.686;-2.596;5.799;-2.491;1.25;-0.109;-6.9;13.5;23.2;54.03;7161;2018-04-16 23:31:27:467
-5.416;-12.058;5.781;-2.903;-9.343;-0.664;-2.748;-2.658;6.914;-2.131;1.834;-0.082;-6.9;13.5;23.2;54.03;7170;2018-04-16 23:31:27:476
-6.068;-11.796;5.768;-2.856;-9.31;-1.153;-2.748;-2.658;6.914;-1.715;2.502;0.034;-7.6;12.0;23.8;54.03;7181;2018-04-16 23:31:27:487
-5.641;-10.962;3.595;-2.856;-9.31;-1.153;-2.786;-1.947;5.58;-1.55;2.886;0.04;-8.7;10.2;25.4;54.03;7190;2018-04-16 23:31:27:496
-5.641;-10.962;3.595;-2.784;-9.265;-1.605;-2.786;-1.947;5.58;-1.5;3.079;0.01;-8.7;10.2;25.4;54.03;7201;2018-04-16 23:31:27:507
-5.432;-10.016;1.426;-2.784;-9.265;-1.605;-2.7;-0.777;3.254;-1.5;3.079;0.01;-10.4;8.8;25.6;54.03;7211;2018-04-16 23:31:27:517
-5.432;-10.016;1.426;-2.69;-9.21;-2.027;-2.7;-0.777;3.254;-1.453;2.718;0.049;-10.4;8.8;25.6;54.03;7221;2018-04-16 23:31:27:527
-4.629;-8.374;0.491;-2.69;-9.21;-2.027;-1.842;0.706;0.31;-1.376;2.103;0.068;-11.4;7.0;25.6;54.03;7230;2018-04-16 23:31:27:536
-4.017;-9.23;-5.631;-2.652;-9.148;-2.335;-1.842;0.706;0.31;-1.376;2.103;0.068;-11.4;7.0;26.3;54.03;7241;2018-04-16 23:31:27:547
-3.136;-8.419;-2.729;-2.652;-9.148;-2.335;-0.706;0.401;-1.213;-0.754;-1.552;0.346;-12.7;6.3;26.3;54.03;7251;2018-04-16 23:31:27:557
-3.136;-8.419;-2.729;-2.784;-9.091;-2.402;-0.706;0.401;-1.213;-0.643;-1.949;0.341;-13.0;4.7;26.3;54.03;7261;2018-04-16 23:31:27:567
-2.503;-8.188;0.69;-2.857;-9.067;-2.407;0.353;0.879;3.097;-0.602;-1.02;0.183;-13.0;4.7;26.3;54.03;7271;2018-04-16 23:31:27:577
-2.503;-8.188;0.69;-2.857;-9.067;-2.407;0.353;0.879;3.097;-0.602;-1.02;0.183;-13.0;4.7;26.3;54.03;7281;2018-04-16 23:31:27:587
-1.057;-8.164;2.257;-2.887;-9.036;-2.487;2.055;0.829;4.552;-0.524;0.268;-0.04;-12.4;4.5;26.2;54.03;7291;2018-04-16 23:31:27:597
-0.838;-8.456;1.877;-2.887;-9.036;-2.487;2.055;0.829;4.552;-0.401;1.284;-0.309;-12.2;4.2;26.3;54.03;7301;2018-04-16 23:31:27:607
-2.531;-8.569;0.706;-2.736;-9.045;-2.623;0.205;0.476;3.329;-0.202;1.901;-0.442;-13.3;3.8;26.3;54.03;7311;2018-04-16 23:31:27:617
-2.891;-7.928;-1.22;-2.657;-9.053;-2.675;-0.234;1.125;1.455;0.015;2.004;-0.293;-13.5;3.4;25.7;54.03;7322;2018-04-16 23:31:27:628
-2.891;-7.928;-1.22;-2.657;-9.053;-2.675;-0.234;1.125;1.455;0.015;2.004;-0.121;-13.5;3.4;25.7;54.03;7331;2018-04-16 23:31:27:637
-3.76;-6.455;-0.271;-2.592;-9.053;-2.738;-1.168;2.598;2.467;-0.121;0.738;-0.121;-13.5;3.4;25.7;54.58;7341;2018-04-16 23:31:27:647
-5.398;-4.628;0.922;-2.592;-9.053;-2.738;-1.168;2.598;2.467;-0.255;0.158;-0.033;-14.7;2.9;25.2;54.58;7351;2018-04-16 23:31:27:657
-5.681;-3.237;2.258;-2.623;-9.013;-2.838;-2.879;4.935;4.468;-0.743;-0.104;0.227;-14.4;3.4;26.9;54.58;7362;2018-04-16 23:31:27:668
-5.681;-3.237;2.258;-2.623;-9.013;-2.838;-2.879;4.935;4.468;-0.889;0.271;0.299;-14.4;3.4;26.9;54.58;7371;2018-04-16 23:31:27:677
-5.936;-2.259;2.261;-2.652;-8.945;-3.02;-3.284;6.686;5.281;-0.882;0.624;0.308;-14.9;2.8;25.9;54.58;7382;2018-04-16 23:31:27:688
-6.029;-2.058;1.563;-2.652;-8.945;-3.02;-3.284;6.686;5.281;-0.716;0.716;0.326;-14.9;2.8;25.9;54.58;7391;2018-04-16 23:31:27:697
-5.624;-2.465;0.82;-2.674;-8.891;-3.157;-3.251;6.695;4.3;-0.409;0.687;0.384;-14.7;2.6;26.5;54.58;7401;2018-04-16 23:31:27:707
-5.624;-2.465;0.82;-2.674;-8.891;-3.157;-3.251;6.695;4.3;-0.045;0.411;0.507;-14.7;2.6;26.5;54.58;7411;2018-04-16 23:31:27:717
-4.517;-3.133;0.711;-2.765;-8.868;-3.145;-1.752;5.735;3.856;0.309;0.053;0.668;-14.7;2.6;26.5;54.58;7421;2018-04-16 23:31:27:727
-3.648;-3.63;0.294;-2.843;-8.865;-3.083;-0.804;5.235;3.377;0.638;-0.184;0.812;-14.9;2.6;26.4;54.58;7431;2018-04-16 23:31:27:737
-3.648;-3.63;0.294;-2.843;-8.865;-3.083;-0.804;5.235;3.377;0.638;-0.184;0.812;-14.9;2.6;26.4;54.58;7441;2018-04-16 23:31:27:747
-2.437;-4.326;-0.719;-3.032;-8.869;-2.883;0.966;4.319;1.727;0.993;-0.423;0.929;-14.6;2.8;26.8;54.58;7451;2018-04-16 23:31:27:757
-0.209;-5.995;-3.045;-3.032;-8.869;-2.883;0.966;4.319;1.727;1.134;-0.597;0.93;-14.7;2.7;26.8;54.58;7461;2018-04-16 23:31:27:767
-0.209;-5.995;-3.045;-3.223;-8.884;-2.618;3.48;1.902;-1.159;1.17;-1.109;0.694;-14.7;2.7;26.8;54.58;7471;2018-04-16 23:31:27:777
0.342;-9.797;-4.901;-3.223;-8.884;-2.618;3.48;1.902;-1.159;1.042;-1.687;0.365;-14.7;2.7;26.8;54.58;7480;2018-04-16 23:31:27:786
-0.281;-15.156;-6.879;-3.358;-8.917;-2.321;2.997;-4.485;-3.866;0.845;-2.248;0.079;-15.1;2.5;26.8;54.58;7490;2018-04-16 23:31:27:796
-0.281;-15.156;-6.879;-3.419;-8.929;-2.181;3.375;-7.02;-5.198;0.58;-2.633;0.018;-15.1;2.5;26.8;54.58;7501;2018-04-16 23:31:27:807
0.761;-16.66;-8.977;-3.419;-8.929;-2.181;3.375;-7.02;-5.198;0.249;-2.652;0.07;-15.3;2.4;26.8;54.58;7511;2018-04-16 23:31:27:817
2.389;-16.696;-12.628;-3.535;-8.925;-2.002;5.925;-7.771;-10.627;-0.214;-2.421;0.064;-15.3;2.4;26.8;54.58;7521;2018-04-16 23:31:27:827
2.77;-15.137;-9.163;-3.535;-8.925;-2.002;5.925;-7.771;-10.627;-0.76;-1.894;-0.024;-15.4;2.4;26.8;54.58;7533;2018-04-16 23:31:27:839
2.77;-15.137;-9.163;-3.6;-8.9;-1.998;5.759;-5.567;-5.483;-0.76;-1.894;-0.024;-15.4;2.4;26.8;54.58;7540;2018-04-16 23:31:27:846
0.715;-12.67;-6.139;-3.6;-8.9;-1.998;5.759;-5.567;-5.483;-0.75;-1.205;-0.243;-15.2;2.4;26.9;54.58;7551;2018-04-16 23:31:27:857
0.715;-12.67;-6.139;-3.534;-8.905;-2.094;3.244;-1.863;-4.123;-0.5;0.424;-0.461;-15.2;2.4;26.9;54.58;7561;2018-04-16 23:31:27:867
-1.046;-10.15;-6.041;-3.534;-8.905;-2.094;3.244;-1.863;-4.123;-0.304;1.157;-0.562;-15.0;2.5;27.1;54.58;7570;2018-04-16 23:31:27:876
-3.139;-9.889;-4.958;-3.372;-8.94;-2.207;0.234;-0.949;-2.751;-0.304;1.157;-0.562;-15.0;2.5;27.1;54.58;7581;2018-04-16 23:31:27:887
-4.948;-9.849;-3.619;-3.372;-8.94;-2.207;0.234;-0.949;-2.751;0.589;1.432;-0.569;-14.9;2.5;27.0;54.58;7591;2018-04-16 23:31:27:897
-4.948;-9.849;-3.619;-3.232;-9.014;-2.117;-2.281;-0.619;-0.744;1.163;0.564;-0.513;-14.9;2.5;27.0;54.58;7601;2018-04-16 23:31:27:907
-6.529;-9.396;-2.851;-3.232;-9.014;-2.117;-2.281;-0.619;-0.744;1.068;-0.415;-0.563;-14.9;2.5;27.2;54.58;7611;2018-04-16 23:31:27:917
-8.896;-10.277;-2.297;-3.147;-9.09;-1.905;-4.703;-0.567;-0.641;0.648;-0.849;-0.528;-14.8;2.7;27.4;54.58;7621;2018-04-16 23:31:27:927
-8.896;-10.277;-2.297;-3.147;-9.09;-1.905;-4.703;-0.567;-0.641;0.648;-0.849;-0.528;-14.8;2.7;27.4;54.58;7631;2018-04-16 23:31:27:937
-8.93;-12.166;-2.838;-3.112;-9.119;-1.826;-6.193;-2.523;-0.66;-0.143;-0.892;-0.294;-14.7;2.9;27.6;54.58;7641;2018-04-16 23:31:27:947
-8.93;-12.166;-2.838;-3.112;-9.119;-1.826;-6.193;-2.523;-0.66;-0.505;-1.01;-0.188;-14.7;2.9;27.6;54.58;7651;2018-04-16 23:31:27:957
-4.762;-14.283;-6.237;-3.12;-9.108;-1.863;-1.642;-5.174;-4.374;-0.722;-1.046;-0.197;-14.6;3.0;27.6;54.58;7661;2018-04-16 23:31:27:967
-1.468;-12.728;1.217;-3.12;-9.108;-1.863;-1.642;-5.174;-4.374;-0.722;-1.046;-0.197;-14.3;3.2;27.8;54.58;7671;2018-04-16 23:31:27:977
-1.468;-12.728;1.217;-3.056;-9.106;-1.975;1.211;1.924;6.841;-0.423;1.029;-0.329;-14.3;3.2;27.8;57.87;7680;2018-04-16 23:31:27:986
-2.041;-4.214;5.92;-3.056;-9.106;-1.975;1.211;1.924;6.841;-0.149;2.121;-0.494;-14.2;3.3;27.9;57.87;7690;2018-04-16 23:31:27:996
-2.233;-1.617;3.017;-2.851;-9.141;-2.118;0.618;7.524;5.134;0.07;2.513;-0.72;-14.2;3.3;27.9;57.87;7700;2018-04-16 23:31:28:006
-2.233;-1.617;3.017;-2.851;-9.141;-2.118;0.618;7.524;5.134;0.07;2.513;-0.72;-14.0;3.5;28.1;57.87;7711;2018-04-16 23:31:28:017
-4.202;-3.156;2.423;-2.633;-9.188;-2.196;-2.079;5.454;4.414;0.402;1.883;-0.42;-13.8;3.7;28.2;57.87;7721;2018-04-16 23:31:28:027
-6.308;-5.88;1.584;-2.633;-9.188;-2.196;-2.079;5.454;4.414;0.579;1.504;-0.053;-13.8;3.7;28.3;57.87;7731;2018-04-16 23:31:28:037
-6.308;-5.88;1.584;-2.558;-9.215;-2.168;-4.938;1.349;3.756;0.579;1.504;-0.053;-13.8;3.7;28.3;57.87;7741;2018-04-16 23:31:28:047
-8.036;-8.856;1.75;-2.558;-9.215;-2.168;-4.938;1.349;3.756;0.673;1.109;0.445;-13.8;3.7;28.3;57.87;7751;2018-04-16 23:31:28:057
-8.266;-11.601;1.222;-2.612;-9.216;-2.103;-5.927;-1.439;3.83;0.607;1.137;0.681;-13.7;3.9;28.2;57.87;7761;2018-04-16 23:31:28:067
-8.266;-11.601;1.222;-2.612;-9.216;-2.103;-5.927;-1.439;3.83;0.607;1.137;0.681;-13.8;4.0;28.3;57.87;7771;2018-04-16 23:31:28:077
-7.037;-11.11;0.555;-2.695;-9.198;-2.076;-4.342;-1.913;2.632;0.392;1.113;0.709;-13.8;4.0;28.3;57.87;7781;2018-04-16 23:31:28:087
-5.279;-9.56;-0.209;-2.695;-9.198;-2.076;-4.342;-1.913;2.632;0.249;0.969;0.733;-13.9;4.1;28.3;57.87;7790;2018-04-16 23:31:28:096
-4.56;-8.814;-0.565;-2.804;-9.163;-2.082;-2.134;-0.063;1.662;0.137;0.659;0.799;-14.1;4.2;28.3;57.87;7801;2018-04-16 23:31:28:107
-4.56;-8.814;-0.565;-2.804;-9.163;-2.082;-2.134;-0.063;1.662;0.031;0.226;0.882;-14.1;4.2;28.3;57.87;7811;2018-04-16 23:31:28:117
-3.876;-8.195;-0.699;-2.975;-9.11;-2.078;-0.901;0.915;1.379;-0.115;-0.518;0.916;-14.2;4.3;28.3;57.87;7821;2018-04-16 23:31:28:127
-3.345;-8.051;-0.439;-2.975;-9.11;-2.078;-0.901;0.915;1.379;-0.115;-0.518;0.916;-14.6;4.5;28.3;57.87;7830;2018-04-16 23:31:28:136
-3.345;-8.051;-0.439;-3.181;-9.047;-2.051;-0.043;0.918;1.656;-0.224;-1.214;0.903;-14.8;4.5;28.3;57.87;7841;2018-04-16 23:31:28:147
-2.965;-8.432;-0.482;-3.181;-9.047;-2.051;-0.043;0.918;1.656;-0.291;-1.577;0.874;-14.8;4.5;28.3;57.87;7850;2018-04-16 23:31:28:156
-2.349;-10.569;-1.366;-3.407;-8.982;-1.97;1.059;-1.587;0.604;-0.216;-2.145;0.819;-15.1;4.6;28.2;57.87;7860;2018-04-16 23:31:28:166
-2.349;-10.569;-1.366;-3.407;-8.982;-1.97;1.059;-1.587;0.604;0.81;-4.046;0.762;-15.1;4.6;28.2;57.87;7871;2018-04-16 23:31:28:177
-0.358;-11.486;-0.26;-3.675;-8.977;-1.443;3.395;-2.78;1.772;1.488;-4.998;0.492;-15.3;4.7;28.2;57.87;7881;2018-04-16 23:31:28:187
-0.153;-11.728;2.025;-3.675;-8.977;-1.443;3.395;-2.78;1.772;2.002;-5.196;0.264;-15.2;5.0;28.3;57.87;7891;2018-04-16 23:31:28:197
-0.153;-11.728;2.025;-3.835;-8.999;-0.699;3.865;-2.492;3.164;2.002;-5.196;0.264;-15.2;5.0;28.3;57.87;7900;2018-04-16 23:31:28:206
0.472;-10.885;3.249;-3.835;-8.999;-0.699;3.865;-2.492;3.164;2.225;-4.619;0.29;-15.1;5.2;28.3;57.87;7910;2018-04-16 23:31:28:216
1.578;-9.339;3.102;-3.882;-9.005;-0.014;5.46;-0.333;3.115;2.489;-2.171;0.202;-13.3;6.3;28.4;57.87;7921;2018-04-16 23:31:28:227
1.578;-9.339;3.102;-3.882;-9.005;-0.014;5.46;-0.333;3.115;2.099;0.197;-0.159;-13.3;6.3;28.4;57.87;7931;2018-04-16 23:31:28:237
1.414;-8.191;0.049;-3.816;-9.031;0.22;4.463;0.583;-0.539;1.382;1.894;-0.606;-11.1;8.6;28.7;57.87;7943;2018-04-16 23:31:28:249
-0.669;-8.759;-0.529;-3.816;-9.031;0.22;4.463;0.583;-0.539;0.794;2.715;-0.778;-11.1;8.6;28.7;57.87;7954;2018-04-16 23:31:28:260
-0.997;-8.65;-0.582;-3.694;-9.083;0.128;2.731;0.468;-0.534;0.513;2.827;-0.58;-11.3;9.5;28.4;57.87;7961;2018-04-16 23:31:28:267
-0.997;-8.65;-0.582;-3.694;-9.083;0.128;2.731;0.468;-0.534;0.513;2.827;-0.58;-11.3;9.5;28.4;57.87;7970;2018-04-16 23:31:28:276
-1.332;-9.225;-1.447;-3.602;-9.121;0.081;2.269;-0.104;-1.528;0.798;1.846;-0.446;-11.3;9.5;28.4;57.87;7981;2018-04-16 23:31:28:287
-2.23;-9.634;-1.773;-3.602;-9.121;0.081;2.269;-0.104;-1.528;0.952;0.86;-0.418;-12.6;9.5;28.2;57.87;7991;2018-04-16 23:31:28:297
-2.23;-9.634;-1.773;-3.523;-9.149;0.21;1.096;-0.472;-1.908;0.958;-0.056;-0.356;-12.8;9.8;27.1;57.78;8000;2018-04-16 23:31:28:306
-2.607;-9.358;-1.234;-3.523;-9.149;0.21;1.096;-0.472;-1.908;0.812;-1.111;-0.2;-12.8;9.8;27.1;57.78;8011;2018-04-16 23:31:28:317
-2.607;-9.025;-0.238;-3.474;-9.161;0.421;0.717;0.045;-0.992;0.812;-1.477;-0.121;-12.7;11.7;26.4;57.78;8021;2018-04-16 23:31:28:327
-2.883;-9.025;-0.238;-3.474;-9.161;0.421;0.717;0.045;-0.992;0.685;-1.541;-0.056;-12.7;11.7;26.4;57.78;8031;2018-04-16 23:31:28:337
-3.367;-9.052;0.427;-3.443;-9.159;0.652;0.076;0.107;-0.225;0.685;-1.541;-0.056;-12.7;11.7;26.4;57.78;8041;2018-04-16 23:31:28:347
-3.437;-9.091;0.717;-3.443;-9.159;0.652;0.076;0.107;-0.225;0.634;-1.317;-0.026;-11.7;11.8;27.9;57.78;8053;2018-04-16 23:31:28:359
-3.437;-9.091;0.717;-3.425;-9.151;0.836;0.011;0.145;-0.099;0.45;-0.836;0.028;-11.4;11.5;27.8;57.78;8061;2018-04-16 23:31:28:367
-3.303;-8.765;0.747;-3.425;-9.151;0.836;0.011;0.145;-0.099;0.34;-0.567;0.059;-11.4;11.5;27.8;57.78;8071;2018-04-16 23:31:28:377
-3.324;-8.631;0.934;-3.425;-9.141;0.939;0.14;0.531;-0.109;0.299;-0.391;0.073;-11.0;12.4;27.5;57.78;8080;2018-04-16 23:31:28:386
-3.324;-8.631;0.934;-3.425;-9.141;0.939;0.14;0.531;-0.109;0.299;-0.391;0.073;-11.0;12.4;27.5;57.78;8091;2018-04-16 23:31:28:397
-3.54;-8.941;1.324;-3.434;-9.129;1.023;-0.106;0.188;0.301;0.378;-0.23;0.067;-10.8;12.6;28.1;57.78;8101;2018-04-16 23:31:28:407
-3.421;-9.386;1.792;-3.434;-9.129;1.023;-0.106;0.188;0.301;0.483;-0.109;0.055;-10.8;12.6;28.1;57.78;8111;2018-04-16 23:31:28:417
-3.116;-9.386;1.755;-3.44;-9.114;1.126;0.142;-0.277;0.683;0.585;0.075;0.032;-10.7;12.8;27.6;57.78;8121;2018-04-16 23:31:28:427
-3.116;-9.386;1.755;-3.44;-9.114;1.126;0.142;-0.277;0.683;0.688;0.283;0.0;-10.7;12.8;27.6;57.78;8130;2018-04-16 23:31:28:436
-2.935;-9.263;1.463;-3.441;-9.099;1.241;0.506;-0.164;0.222;0.688;0.283;0.0;-10.7;12.8;27.6;57.78;8140;2018-04-16 23:31:28:446
-2.629;-8.865;0.833;-3.441;-9.099;1.241;0.506;-0.164;0.222;1.269;0.456;-0.048;-10.5;12.9;27.6;57.78;8150;2018-04-16 23:31:28:456
-2.629;-8.865;0.833;-3.44;-9.07;1.437;0.916;0.298;-0.911;1.269;0.456;-0.048;-10.5;12.9;27.6;57.78;8161;2018-04-16 23:31:28:467
-2.413;-8.774;-0.072;-3.44;-9.07;1.437;0.916;0.298;-0.911;1.513;0.291;-0.077;-10.3;12.9;27.9;57.78;8174;2018-04-16 23:31:28:480
-2.143;-8.997;-1.126;-3.422;-9.028;1.717;1.164;0.07;-2.467;1.686;-0.023;-0.104;-10.1;13.1;27.8;57.78;8181;2018-04-16 23:31:28:487
-2.143;-8.997;-1.126;-3.422;-9.028;1.717;1.164;0.07;-2.467;1.62;-0.236;-0.115;-10.1;13.1;27.8;57.78;8191;2018-04-16 23:31:28:497
-1.976;-8.972;-1.706;-3.384;-8.985;1.995;1.408;0.013;-3.701;1.475;-0.415;-0.133;-10.1;13.7;27.6;57.78;8201;2018-04-16 23:31:28:507
-2.011;-9.65;-2.201;-3.384;-8.985;1.995;1.408;0.013;-3.701;1.255;-0.529;-0.139;-10.1;13.7;27.6;57.78;8210;2018-04-16 23:31:28:516
-2.011;-9.65;-2.201;-3.335;-8.955;2.203;1.207;-0.996;-4.473;0.814;-0.489;-0.112;-10.2;14.4;27.4;57.78;8221;2018-04-16 23:31:28:527
-2.38;-10.836;-2.313;-3.335;-8.955;2.203;1.207;-0.996;-4.473;0.814;-0.489;-0.112;-10.2;14.4;27.4;57.78;8230;2018-04-16 23:31:28:536
-2.38;-10.836;-2.313;-3.308;-8.94;2.303;0.914;-2.558;-4.272;0.294;-0.094;-0.073;-10.2;14.4;27.4;57.78;8241;2018-04-16 23:31:28:547
-2.229;-11.685;-1.59;-3.308;-8.94;2.303;0.914;-2.558;-4.272;-0.117;0.411;-0.138;-10.4;14.9;27.2;57.78;8250;2018-04-16 23:31:28:556
-1.555;-11.821;-0.779;-3.301;-8.954;2.259;1.746;-2.867;-3.038;-0.117;0.411;-0.138;-10.4;14.9;27.2;57.78;8261;2018-04-16 23:31:28:567
-0.311;-12.08;-0.311;-3.301;-8.954;2.259;1.746;-2.867;-3.038;-0.233;0.583;-0.214;-10.5;15.4;26.8;57.78;8270;2018-04-16 23:31:28:576
-0.311;-12.08;-0.311;-3.274;-8.985;2.175;3.331;-3.222;-2.498;-0.25;0.553;-0.329;-10.5;15.9;26.6;57.78;8280;2018-04-16 23:31:28:586
0.622;-12.567;-0.441;-3.274;-8.985;2.175;3.331;-3.222;-2.498;-0.27;0.288;-0.452;-10.5;15.9;26.6;57.78;8291;2018-04-16 23:31:28:597
0.622;-12.567;-0.441;-3.274;-9.026;2.107;3.784;-4.224;-2.629;-0.293;0.165;-0.492;-10.4;16.4;26.5;57.78;8301;2018-04-16 23:31:28:607
0.579;-13.25;-0.522;-3.204;-9.026;2.107;3.784;-4.224;-2.629;-0.293;0.165;-0.492;-10.4;16.4;26.5;57.78;8310;2018-04-16 23:31:28:616
-1.749;-12.916;-1.684;-3.094;-9.074;2.063;2.652;-4.305;-3.038;-0.343;-0.296;-0.539;-10.3;16.8;26.6;53.28;8320;2018-04-16 23:31:28:626
-1.749;-12.916;-1.684;-3.094;-9.074;2.063;2.652;-4.305;-3.038;-0.4;-0.781;-0.534;-10.3;16.8;26.6;53.28;8331;2018-04-16 23:31:28:637
-3.624;-12.063;-2.866;-2.969;-9.125;2.019;-0.654;-2.938;-4.885;-0.626;-0.894;-0.458;-10.4;17.1;26.4;53.28;8340;2018-04-16 23:31:28:646
-5.355;-10.908;-4.01;-2.969;-9.125;2.019;-0.654;-2.938;-4.885;-1.082;-0.738;-0.327;-10.4;17.1;26.4;53.28;8350;2018-04-16 23:31:28:656
-5.355;-10.908;-4.01;-2.9;-9.195;1.792;-2.631;-1.543;-5.397;-1.758;-0.404;-0.187;-10.4;17.4;26.3;53.28;8360;2018-04-16 23:31:28:666
-5.387;-10.435;-2.436;-2.9;-9.195;1.792;-2.631;-1.543;-5.397;-2.453;-0.134;-0.056;-10.4;17.4;26.3;53.28;8370;2018-04-16 23:31:28:676
-5.387;-10.435;-2.436;-2.893;-9.28;1.298;-2.28;-1.117;-2.172;-2.963;-0.089;0.006;-10.4;17.6;26.3;53.28;8381;2018-04-16 23:31:28:687
-5.054;-10.458;0.152;-2.893;-9.28;1.298;-2.28;-1.117;-2.172;-3.213;-0.221;0.022;-10.4;17.6;26.3;53.28;8391;2018-04-16 23:31:28:697
-4.476;-10.454;1.899;-2.891;-9.344;0.712;-1.493;-1.17;1.862;-3.257;-0.334;0.021;-10.5;17.6;26.3;53.28;8400;2018-04-16 23:31:28:706
-4.356;-10.58;4.21;-2.891;-9.344;0.712;-1.493;-1.17;1.862;-3.187;-0.233;-0.015;-10.5;17.6;26.4;53.28;8411;2018-04-16 23:31:28:717
-4.356;-10.58;4.21;-2.887;-9.371;0.137;-1.811;-1.481;5.461;-3.187;-0.233;-0.015;-10.5;17.6;26.4;53.28;8420;2018-04-16 23:31:28:726
-4.804;-10.907;5.847;-2.887;-9.371;0.137;-1.811;-1.481;5.461;-2.787;0.434;0.034;-10.6;17.4;26.6;53.28;8430;2018-04-16 23:31:28:736
-5.175;-11.036;6.397;-2.898;-9.36;-0.396;-2.277;-1.676;6.793;-2.457;1.179;0.087;-10.6;17.4;26.6;53.28;8441;2018-04-16 23:31:28:747
-5.77;-10.979;6.476;-2.898;-9.36;-0.396;-2.277;-1.676;6.793;-2.217;1.791;0.06;-10.5;16.2;27.5;53.28;8454;2018-04-16 23:31:28:760
-5.77;-10.979;6.476;-2.876;-9.331;-0.912;-3.083;-1.65;7.446;-1.994;2.459;0.011;-10.5;16.2;27.5;53.28;8461;2018-04-16 23:31:28:767
-5.945;-10.836;6.224;-2.876;-9.331;-0.912;-3.083;-1.65;7.446;-1.879;2.79;-0.01;-11.0;14.6;28.3;53.28;8471;2018-04-16 23:31:28:777
-5.911;-10.71;4.264;-2.791;-9.296;-1.4;-3.12;-1.414;5.664;-1.504;3.445;-0.053;-12.6;11.2;29.7;53.28;8480;2018-04-16 23:31:28:786
-5.508;-11.523;-4.125;-2.791;-9.296;-1.4;-3.12;-1.414;5.664;-1.212;2.871;-0.009;-12.6;11.2;29.7;53.28;8490;2018-04-16 23:31:28:796
-5.508;-11.523;-4.125;-2.706;-9.257;-1.775;-2.402;-2.175;-3.199;-1.212;2.871;-0.009;-12.6;11.2;29.7;53.28;8501;2018-04-16 23:31:28:807
-4.086;-10.4;-4.252;-2.715;-9.234;-1.879;-1.371;-1.166;-2.373;-1.018;1.365;0.165;-13.7;9.8;29.9;53.28;8511;2018-04-16 23:31:28:817
-4.086;-10.4;-4.252;-2.715;-9.234;-1.879;-1.371;-1.166;-2.373;-0.801;-0.272;0.247;-13.7;9.8;29.9;53.28;8521;2018-04-16 23:31:28:827
-3.402;-9.105;-1.451;-2.775;-9.191;-2.001;-0.635;0.24;1.19;-0.8;-0.448;0.21;-15.0;8.8;30.9;53.28;8531;2018-04-16 23:31:28:837
-3.523;-8.616;0.794;-2.775;-9.191;-2.001;-0.635;0.24;1.19;-0.859;0.035;0.162;-15.0;8.8;30.9;53.28;8540;2018-04-16 23:31:28:846
-3.523;-8.616;0.794;-2.785;-9.15;-2.167;-0.492;1.057;4.332;-0.852;0.881;0.133;-15.1;7.7;29.9;53.28;8551;2018-04-16 23:31:28:857
-2.849;-7.806;2.485;-2.785;-9.15;-2.167;-0.492;1.057;4.332;-0.569;1.829;-0.007;-15.4;6.7;31.8;53.28;8561;2018-04-16 23:31:28:867
-2.527;-7.841;2.295;-2.702;-9.125;-2.366;0.175;1.284;4.661;-0.569;1.829;-0.007;-15.4;6.7;31.8;53.28;8571;2018-04-16 23:31:28:877
-2.527;-7.841;2.295;-2.702;-9.125;-2.366;0.175;1.284;4.661;-0.128;2.062;-0.156;-15.4;6.7;31.8;53.28;8580;2018-04-16 23:31:28:886
-2.376;-7.971;0.381;-2.578;-9.133;-2.473;0.165;1.128;2.705;0.065;1.796;-0.177;-17.0;5.6;30.7;53.28;8591;2018-04-16 23:31:28:897
-2.376;-7.971;0.381;-2.578;-9.133;-2.473;0.165;1.128;2.705;0.065;1.796;-0.177;-17.0;5.6;30.7;53.28;8601;2018-04-16 23:31:28:907
-2.155;-7.666;0.211;-2.53;-9.14;-2.495;0.375;1.474;2.705;0.148;1.392;-0.15;-17.4;6.3;30.5;53.28;8610;2018-04-16 23:31:28:916
-2.344;-7.3;-1.152;-2.448;-9.155;-2.523;0.104;1.855;1.371;0.144;1.071;-0.156;-17.4;6.3;30.5;53.28;8620;2018-04-16 23:31:28:926
-3.156;-6.525;0.092;-2.448;-9.155;-2.523;0.104;1.855;1.371;-0.007;0.716;-0.149;-17.6;6.4;29.8;53.28;8631;2018-04-16 23:31:28:937
-3.156;-6.525;0.092;-2.449;-9.133;-2.6;-0.98;3.233;3.529;-0.588;-0.133;0.132;-18.2;5.8;29.6;55.43;8641;2018-04-16 23:31:28:947
-4.031;-4.793;1.541;-2.449;-9.133;-2.6;-0.98;3.233;3.529;-0.86;-0.095;0.259;-18.2;5.8;29.6;55.43;8651;2018-04-16 23:31:28:957
-5.203;-3.359;1.179;-2.497;-9.069;-2.773;-2.285;5.238;3.918;-0.99;0.312;0.325;-18.5;5.2;28.8;55.43;8661;2018-04-16 23:31:28:967
-5.203;-3.359;1.179;-2.497;-9.069;-2.773;-2.285;5.238;3.918;-0.914;0.643;0.417;-18.5;5.2;28.8;55.43;8671;2018-04-16 23:31:28:977
-6.011;-2.835;1.007;-2.535;-8.993;-2.978;-3.475;6.158;3.985;-0.652;0.558;0.494;-18.1;4.8;31.9;55.43;8681;2018-04-16 23:31:28:987
-5.85;-2.831;0.83;-2.535;-8.993;-2.978;-3.475;6.158;3.985;-0.652;0.558;0.494;-18.1;4.8;31.9;55.43;8691;2018-04-16 23:31:28:997
-5.85;-2.831;0.83;-2.62;-8.94;-3.063;-2.787;6.012;3.985;-0.093;0.149;0.683;-18.1;4.8;31.9;55.43;8701;2018-04-16 23:31:29:007
-4.895;-3.045;1.109;-2.62;-8.94;-3.063;-2.787;6.012;3.985;0.292;-0.073;0.789;-19.1;3.9;30.5;55.43;8711;2018-04-16 23:31:29:017
-3.42;-3.597;0.484;-2.775;-8.925;-2.969;-0.645;5.328;3.453;0.655;-0.237;0.828;-19.1;3.9;30.5;55.43;8721;2018-04-16 23:31:29:027
-3.42;-3.597;0.484;-2.775;-8.925;-2.969;-0.645;5.328;3.453;0.921;-0.483;0.834;-18.8;5.0;31.0;55.43;8731;2018-04-16 23:31:29:037
-2.314;-4.474;-0.978;-2.958;-8.934;-2.757;1.162;4.16;1.529;1.043;-0.797;0.8;-18.5;4.7;30.9;55.43;8741;2018-04-16 23:31:29:047
0.022;-7.36;-3.126;-2.958;-8.934;-2.757;1.162;4.16;1.529;1.07;-1.482;0.432;-18.2;5.0;30.6;55.43;8752;2018-04-16 23:31:29:058
0.022;-7.36;-3.126;-3.103;-8.964;-2.488;3.138;0.48;-1.406;0.843;-1.951;0.145;-18.2;5.0;30.6;55.43;8762;2018-04-16 23:31:29:068
-0.341;-12.456;-5.75;-3.103;-8.964;-2.488;3.138;0.48;-1.406;0.843;-1.951;0.145;-18.4;4.9;30.7;55.43;8772;2018-04-16 23:31:29:078
0.791;-16.289;-8.45;-3.223;-8.983;-2.256;3.356;-6.472;-4.941;0.28;-2.518;0.053;-18.4;4.9;30.7;55.43;8781;2018-04-16 23:31:29:087
0.791;-16.289;-8.45;-3.223;-8.983;-2.256;3.356;-6.472;-4.941;0.013;-2.759;0.122;-18.6;4.8;30.7;55.43;8790;2018-04-16 23:31:29:096
2.778;-17.279;-13.086;-3.367;-8.969;-2.097;6.145;-8.31;-10.989;-0.264;-2.79;0.14;-18.6;4.8;30.7;55.43;8801;2018-04-16 23:31:29:107
3.326;-15.332;-12.207;-3.367;-8.969;-2.097;6.145;-8.31;-10.989;-0.724;-2.258;0.11;-18.6;4.8;30.6;55.43;8811;2018-04-16 23:31:29:117
3.326;-15.332;-12.207;-3.446;-8.93;-2.132;6.509;-6.029;-8.941;-1.06;-1.41;-0.081;-18.6;4.8;30.6;55.43;8820;2018-04-16 23:31:29:126
1.432;-13.218;-7.302;-3.446;-8.93;-2.132;6.509;-6.029;-8.941;-1.06;-1.41;-0.081;-18.6;4.8;30.6;55.43;8831;2018-04-16 23:31:29:137
-0.029;-11.493;-5.485;-3.374;-8.924;-2.27;3.345;-2.57;-3.215;-0.754;0.07;-0.409;-18.5;4.8;30.7;55.43;8840;2018-04-16 23:31:29:146
-1.032;-9.294;-4.454;-3.374;-8.924;-2.27;3.345;-2.57;-3.215;-0.401;0.922;-0.442;-18.3;4.7;30.9;55.43;8854;2018-04-16 23:31:29:160
-1.032;-9.294;-4.454;-3.222;-8.951;-2.381;1.658;-0.019;-1.989;0.112;1.585;-0.475;-18.3;4.7;30.9;55.43;8861;2018-04-16 23:31:29:167
-2.956;-9.023;-3.885;-3.222;-8.951;-2.381;1.658;-0.019;-1.989;0.474;1.53;-0.568;-18.3;4.7;30.9;55.43;8871;2018-04-16 23:31:29:177
-2.956;-9.023;-3.885;-3.055;-9.016;-2.354;-1.2;-0.129;-0.538;0.474;1.53;-0.568;-18.3;4.7;30.9;55.43;8880;2018-04-16 23:31:29:186
-4.829;-8.969;-2.415;-3.055;-9.016;-2.354;-1.2;-0.129;-0.538;0.904;0.788;-0.596;-18.1;4.8;31.3;55.43;8890;2018-04-16 23:31:29:196
-4.521;-7.287;-1.004;-2.961;-9.09;-2.185;-1.56;1.803;1.18;0.96;-0.26;-0.487;-18.1;4.8;31.3;55.43;8901;2018-04-16 23:31:29:207
-6.245;-8.489;-1.104;-2.961;-9.09;-2.185;-1.56;1.803;1.18;0.723;-0.691;-0.707;-17.9;5.0;31.4;55.43;8913;2018-04-16 23:31:29:219
-7.368;-10.512;-1.117;-2.878;-9.157;-2.01;-4.024;-0.291;0.813;0.414;-0.765;-0.665;-17.9;4.9;31.6;55.43;8925;2018-04-16 23:31:29:231
-7.368;-10.512;-1.117;-2.878;-9.157;-2.01;-4.024;-0.291;0.813;0.414;-0.765;-0.665;-17.9;4.9;31.6;55.43;8931;2018-04-16 23:31:29:237
-7.695;-13.49;-0.565;-2.829;-9.188;-1.936;-4.866;-4.302;1.371;0.034;-0.882;-0.315;-17.7;4.9;31.7;55.43;8940;2018-04-16 23:31:29:246
-6.255;-15.054;-7.394;-2.829;-9.188;-1.936;-4.866;-4.302;1.371;-0.406;-0.766;0.057;-17.7;4.9;31.7;55.43;8951;2018-04-16 23:31:29:257
-5.295;-13.299;-4.915;-2.86;-9.178;-1.936;-3.079;-5.645;-5.63;-0.826;-0.367;0.097;-17.4;5.0;32.0;55.43;8960;2018-04-16 23:31:29:266
-5.295;-13.299;-4.915;-2.86;-9.178;-1.936;-3.079;-5.645;-5.63;-0.826;-0.367;0.097;-17.4;5.0;32.0;55.43;8971;2018-04-16 23:31:29:277
-3.363;-6.482;4.229;-2.842;-9.15;-2.092;-0.521;2.667;6.321;-0.683;1.021;-0.148;-17.2;5.2;32.2;60.01;8980;2018-04-16 23:31:29:286
-3.363;-6.482;4.229;-2.842;-9.15;-2.092;-0.521;2.667;6.321;-0.219;1.932;-0.437;-17.2;5.2;32.2;60.01;8990;2018-04-16 23:31:29:296
-2.71;-2.386;5.582;-2.649;-9.18;-2.21;-0.497;6.633;6.465;0.216;2.387;-0.649;-17.0;5.3;32.4;60.01;9000;2018-04-16 23:31:29:306
-4.606;-3.95;2.535;-2.649;-9.18;-2.21;-0.497;6.633;6.465;0.66;2.001;-0.464;-16.7;5.5;32.6;60.01;9010;2018-04-16 23:31:29:316
-4.606;-3.95;2.535;-2.482;-9.231;-2.191;-3.474;3.752;3.489;0.66;2.001;-0.464;-16.7;5.5;32.6;60.01;9021;2018-04-16 23:31:29:327
-6.383;-6.337;0.79;-2.482;-9.231;-2.191;-3.474;3.752;3.489;0.817;1.538;-0.051;-16.6;5.5;32.7;60.01;9031;2018-04-16 23:31:29:337
-6.665;-8.248;0.395;-2.516;-9.246;-2.088;-4.15;0.998;2.483;0.765;0.987;0.519;-16.5;5.6;32.7;60.01;9040;2018-04-16 23:31:29:346
-6.643;-10.283;0.263;-2.516;-9.246;-2.088;-4.15;0.998;2.483;0.6;0.743;0.738;-16.5;5.6;32.7;60.01;9051;2018-04-16 23:31:29:357
-6.138;-10.837;0.075;-2.636;-9.224;-2.034;-3.811;-1.406;2.205;0.348;0.568;0.85;-16.5;5.7;32.8;60.01;9061;2018-04-16 23:31:29:367
-6.138;-10.837;0.075;-2.636;-9.224;-2.034;-3.811;-1.406;2.205;0.021;0.431;0.854;-16.5;5.7;32.8;60.01;9071;2018-04-16 23:31:29:377
-5.534;-10.791;0.071;-2.776;-9.173;-2.076;-2.546;-1.514;2.164;-0.296;0.23;0.819;-16.5;5.8;32.9;60.01;9081;2018-04-16 23:31:29:387
-4.696;-10.203;0.087;-2.776;-9.173;-2.076;-2.546;-1.514;2.164;-0.519;-0.112;0.847;-16.5;5.8;32.9;60.01;9091;2018-04-16 23:31:29:397
-4.696;-10.203;0.087;-2.95;-9.101;-2.156;-0.84;-0.519;2.121;-0.519;-0.112;0.847;-16.7;5.8;33.0;60.01;9101;2018-04-16 23:31:29:407
-3.27;-9.128;0.041;-2.95;-9.101;-2.156;-0.84;-0.519;2.121;-0.666;-0.902;0.845;-16.9;5.8;33.2;60.01;9111;2018-04-16 23:31:29:417
-2.568;-8.881;0.351;-3.154;-9.028;-2.171;0.388;0.16;2.419;-0.685;-1.763;0.734;-17.0;5.8;33.2;60.01;9121;2018-04-16 23:31:29:427
-2.568;-8.881;0.351;-3.154;-9.028;-2.171;0.388;0.16;2.419;-0.629;-2.282;0.64;-17.0;5.8;33.2;60.01;9131;2018-04-16 23:31:29:437
-2.342;-9.086;0.37;-3.361;-8.971;-2.096;1.226;-0.23;2.514;-0.544;-2.75;0.555;-17.2;5.9;33.1;60.01;9140;2018-04-16 23:31:29:446
-1.873;-9.693;0.583;-3.361;-8.971;-2.096;1.226;-0.23;2.514;-0.544;-2.75;0.555;-17.2;5.9;33.1;60.01;9151;2018-04-16 23:31:29:457
-0.982;-10.156;0.952;-3.559;-8.935;-1.915;2.071;-0.927;2.753;-0.381;-3.335;0.451;-17.4;6.0;33.2;60.01;9161;2018-04-16 23:31:29:467
-0.982;-10.156;0.952;-3.559;-8.935;-1.915;2.071;-0.927;2.753;0.02;-3.806;0.357;-17.2;6.1;33.3;60.01;9170;2018-04-16 23:31:29:476
-0.195;-9.623;1.732;-3.739;-8.939;-1.509;3.544;-0.684;3.241;0.02;-3.806;0.357;-17.2;6.1;33.3;60.01;9180;2018-04-16 23:31:29:486
0.089;-9.555;2.012;-3.805;-8.967;-1.134;3.894;-0.589;3.146;1.489;-4.755;0.315;-16.8;6.1;33.3;60.01;9191;2018-04-16 23:31:29:497
-1.018;-9.659;1.991;-3.805;-8.967;-1.134;3.894;-0.589;3.146;2.622;-4.842;-0.07;-16.8;6.1;33.3;60.01;9201;2018-04-16 23:31:29:507
-1.018;-9.659;1.991;-3.81;-9.032;-0.272;2.46;-0.519;2.545;2.85;-4.401;-0.319;-13.1;7.1;34.7;60.01;9211;2018-04-16 23:31:29:517
-1.689;-8.854;3.543;-3.81;-9.032;-0.272;2.46;-0.519;2.545;2.88;-1.637;-0.296;-13.1;7.1;34.7;60.01;9221;2018-04-16 23:31:29:527
-0.551;-7.909;1.731;-3.734;-9.056;0.46;2.608;0.863;2.459;2.88;-1.637;-0.296;-9.2;8.7;34.8;60.01;9231;2018-04-16 23:31:29:537
-0.551;-7.909;1.731;-3.734;-9.056;0.46;2.608;0.863;2.459;2.533;0.699;-0.368;-9.2;8.7;34.8;60.01;9241;2018-04-16 23:31:29:547
-0.94;-8.807;-0.097;-3.661;-9.067;0.747;2.722;0.26;-0.844;1.918;2.407;-0.641;-7.6;11.1;35.4;60.01;9250;2018-04-16 23:31:29:556
-0.94;-8.807;-0.097;-3.661;-9.067;0.747;2.722;0.26;-0.844;1.224;3.55;-0.732;-7.6;11.1;35.4;60.01;9261;2018-04-16 23:31:29:567
-1.131;-9.062;-0.54;-3.581;-9.103;0.687;2.648;0.217;-1.376;1.082;3.696;-0.621;-7.6;11.1;35.4;60.01;9270;2018-04-16 23:31:29:576
-0.816;-8.896;-0.906;-3.581;-9.103;0.687;2.648;0.217;-1.376;1.082;3.696;-0.621;-9.3;11.0;34.0;60.01;9282;2018-04-16 23:31:29:588
-0.816;-8.896;-0.906;-3.548;-9.118;0.667;2.698;0.043;-1.683;1.188;3.483;-0.567;-9.3;11.0;34.0;61.28;9291;2018-04-16 23:31:29:597
-1.043;-9.521;-1.215;-3.548;-9.118;0.667;2.698;0.043;-1.683;1.553;2.379;-0.514;-9.6;12.8;34.2;61.28;9300;2018-04-16 23:31:29:606
-1.865;-10.787;-1.622;-3.45;-9.143;0.816;1.585;-1.644;-2.438;1.522;1.756;-0.45;-12.6;15.3;34.2;61.28;9310;2018-04-16 23:31:29:616
-2.04;-9.965;-1.883;-3.45;-9.143;0.816;1.585;-1.644;-2.438;1.338;1.148;-0.342;-12.6;15.3;34.2;61.28;9321;2018-04-16 23:31:29:627
-2.04;-9.965;-1.883;-3.409;-9.144;0.967;1.357;-0.345;-2.801;1.087;0.506;-0.22;-12.6;16.0;32.9;61.28;9330;2018-04-16 23:31:29:636
-2.194;-8.686;-1.611;-3.409;-9.144;0.967;1.357;-0.345;-2.801;0.904;-0.154;-0.127;-13.1;15.8;32.9;61.28;9341;2018-04-16 23:31:29:647
-2.656;-8.37;-0.931;-3.38;-9.133;1.154;0.912;0.813;-2.421;0.863;-0.809;-0.066;-13.1;15.8;32.9;61.28;9351;2018-04-16 23:31:29:657
-2.897;-8.62;-0.357;-3.38;-9.133;1.154;0.912;0.813;-2.421;0.93;-1.385;-0.015;-13.4;15.9;32.6;61.28;9361;2018-04-16 23:31:29:667
-2.897;-8.62;-0.357;-3.341;-9.109;1.429;0.334;0.322;-1.569;0.997;-1.767;0.035;-13.4;15.9;32.6;61.28;9370;2018-04-16 23:31:29:676
-3.108;-9.009;0.165;-3.341;-9.109;1.429;0.334;0.322;-1.569;1.008;-1.903;0.078;-12.3;17.2;33.6;61.28;9381;2018-04-16 23:31:29:687
