sep=;
acc_x;acc_y;acc_z;grav_x;grav_y;grav_z;lin_acc_x;lin_acc_y;lin_acc_z;gyro_x;gyro_y;gyro_z;mag_x;mag_y;mag_z;sound_lvl;time_ms;date_time
-0.433;2.562;8.775;-0.706;2.615;9.425;-0.057;-0.094;-0.555;0.112;-0.109;-0.12;-6.2;-31.0;8.5;50.49;32;2018-04-16 22:38:41:298
-0.433;2.562;8.775;-0.706;2.615;9.425;-0.057;-0.094;-0.555;0.112;-0.109;-0.12;-6.2;-31.0;8.5;50.49;41;2018-04-16 22:38:41:307
-0.292;2.705;8.588;-0.697;2.622;9.424;0.404;0.083;-0.836;0.086;-0.139;-0.145;-6.1;-31.0;8.6;50.49;51;2018-04-16 22:38:41:317
-0.071;2.553;8.452;-0.697;2.622;9.424;0.404;0.083;-0.836;0.093;-0.446;-0.26;-6.1;-31.0;8.6;50.49;62;2018-04-16 22:38:41:328
-0.071;2.553;8.452;-0.588;2.651;9.423;0.546;-0.196;-0.889;0.093;-0.446;-0.26;-5.8;-31.1;8.5;50.49;72;2018-04-16 22:38:41:338
0.145;2.394;8.531;-0.588;2.651;9.423;0.546;-0.196;-0.889;0.321;-0.908;-0.305;-5.8;-31.1;8.5;50.49;82;2018-04-16 22:38:41:348
1.022;2.94;9.173;-0.399;2.729;9.411;0.976;-0.039;-0.641;0.817;-1.637;-0.353;-5.6;-31.1;8.5;50.49;92;2018-04-16 22:38:41:358
1.022;2.94;9.173;-0.399;2.729;9.411;0.976;-0.039;-0.641;0.817;-1.637;-0.353;-5.6;-31.1;8.5;50.49;102;2018-04-16 22:38:41:368
1.684;3.098;9.349;-0.05;2.922;9.361;1.527;0.21;0.067;1.189;-2.128;-0.409;-5.4;-31.1;8.5;50.49;112;2018-04-16 22:38:41:378
1.684;3.098;9.349;-0.05;2.922;9.361;1.527;0.21;0.067;1.565;-2.625;-0.487;-5.4;-31.1;8.5;50.49;121;2018-04-16 22:38:41:387
3.378;2.349;6.084;0.477;3.253;9.239;2.901;-0.904;-3.155;1.857;-3.1;-0.49;-5.2;-31.2;8.5;50.49;132;2018-04-16 22:38:41:398
3.378;2.349;6.084;0.477;3.253;9.239;2.901;-0.904;-3.155;1.857;-3.1;-0.49;-5.2;-31.2;8.5;50.49;142;2018-04-16 22:38:41:408
3.378;2.349;6.084;0.477;3.253;9.239;2.901;-0.904;-3.155;1.857;-3.1;-0.49;-5.2;-31.2;8.5;50.49;151;2018-04-16 22:38:41:417
3.949;1.519;6.245;1.093;3.565;9.07;2.856;-2.046;-2.825;1.621;-3.749;-0.743;-4.9;-31.2;8.7;50.49;161;2018-04-16 22:38:41:427
3.949;1.519;6.245;1.093;3.565;9.07;2.856;-2.046;-2.825;1.021;-3.657;-1.356;-4.9;-31.2;8.7;50.49;171;2018-04-16 22:38:41:437
1.354;1.979;6.231;1.905;3.881;8.802;0.193;-2.137;-2.688;0.604;-3.49;-1.262;-4.2;-31.1;9.2;50.49;182;2018-04-16 22:38:41:448
1.354;1.979;6.231;1.905;3.881;8.802;0.193;-2.137;-2.688;0.604;-3.49;-1.262;-4.2;-31.1;9.2;50.49;191;2018-04-16 22:38:41:457
1.24;2.506;7.416;2.395;3.913;8.667;-1.155;-1.407;-1.251;-0.07;-3.195;-0.832;-3.7;-31.0;9.5;50.49;203;2018-04-16 22:38:41:469
1.24;2.506;7.416;2.395;3.913;8.667;-1.155;-1.407;-1.251;-0.07;-3.195;-0.832;-3.7;-31.0;9.5;50.49;212;2018-04-16 22:38:41:478
2.024;3.13;8.539;2.733;3.814;8.611;-0.708;-0.684;-0.072;-0.789;-1.785;-0.302;-2.7;-30.8;9.6;50.49;223;2018-04-16 22:38:41:489
2.024;3.13;8.539;2.733;3.814;8.611;-0.708;-0.684;-0.072;-0.789;-1.785;-0.302;-2.7;-30.8;9.6;50.49;232;2018-04-16 22:38:41:498
2.024;3.13;8.539;2.733;3.814;8.611;-0.708;-0.684;-0.072;-0.789;-1.785;-0.302;-2.7;-30.8;9.6;50.49;242;2018-04-16 22:38:41:508
3.492;2.46;7.7;2.995;3.549;8.637;0.497;-1.089;-0.937;-0.959;-0.738;0.153;-0.9;-30.4;10.4;50.49;252;2018-04-16 22:38:41:518
3.492;2.46;7.7;2.995;3.549;8.637;0.497;-1.089;-0.937;-0.882;-0.7;0.133;-0.9;-30.4;10.4;50.49;261;2018-04-16 22:38:41:527
2.868;2.689;6.116;3.126;3.396;8.652;-0.258;-0.708;-2.536;-0.882;-0.7;0.133;-0.2;-30.5;9.8;50.49;272;2018-04-16 22:38:41:538
2.211;2.642;5.256;3.212;3.338;8.644;-1.001;-0.696;-3.387;-0.757;-1.104;-0.028;0.0;-30.5;9.8;50.49;281;2018-04-16 22:38:41:547
2.058;2.448;5.215;3.544;3.238;8.551;-1.53;-0.68;-3.613;-0.582;-2.348;-0.162;0.8;-30.3;8.4;50.49;294;2018-04-16 22:38:41:560
2.058;2.448;5.215;3.544;3.238;8.551;-1.53;-0.68;-3.613;-0.582;-2.348;-0.162;0.8;-30.3;8.4;50.49;301;2018-04-16 22:38:41:567
2.762;1.83;7.642;4.058;3.175;8.344;-1.297;-1.345;-0.701;-0.373;-3.291;-0.103;1.8;-30.5;9.1;50.49;312;2018-04-16 22:38:41:578
2.762;1.83;7.642;4.058;3.175;8.344;-1.297;-1.345;-0.701;-0.373;-3.291;-0.103;1.8;-30.5;9.1;49.32;322;2018-04-16 22:38:41:588
2.278;1.08;9.922;4.335;3.155;8.211;-2.057;-2.075;1.71;-0.1;-3.056;0.117;2.0;-30.5;9.1;49.32;332;2018-04-16 22:38:41:598
2.278;1.08;9.922;4.335;3.155;8.211;-2.057;-2.075;1.71;-0.1;-3.056;0.117;2.0;-30.5;9.1;49.32;342;2018-04-16 22:38:41:608
5.149;1.968;8.837;4.799;3.153;7.95;-0.437;-1.603;0.4;0.413;-2.658;0.556;2.4;-30.5;8.0;49.32;352;2018-04-16 22:38:41:618
5.708;2.297;9.464;4.993;3.169;7.823;0.715;-0.872;1.642;0.564;-2.495;0.552;2.4;-30.6;8.4;49.32;362;2018-04-16 22:38:41:628
5.708;2.297;9.464;4.993;3.169;7.823;0.715;-0.872;1.642;0.564;-2.495;0.552;2.4;-30.6;8.4;49.32;371;2018-04-16 22:38:41:637
5.758;1.511;7.822;5.337;3.202;7.578;0.421;-1.691;0.243;0.483;-1.806;0.376;2.9;-30.6;8.0;49.32;381;2018-04-16 22:38:41:647
5.758;1.511;7.822;5.337;3.202;7.578;0.421;-1.691;0.243;0.483;-1.806;0.376;2.9;-30.6;8.0;49.32;392;2018-04-16 22:38:41:658
4.189;0.587;4.566;5.562;3.18;7.424;-1.374;-2.593;-2.859;-0.054;-1.264;0.362;3.2;-30.3;8.7;49.32;401;2018-04-16 22:38:41:667
4.189;0.587;4.566;5.562;3.18;7.424;-1.374;-2.593;-2.859;-0.305;-1.39;0.486;3.2;-30.3;8.7;49.32;411;2018-04-16 22:38:41:677
2.984;-0.006;3.497;5.823;3.056;7.275;-2.839;-3.062;-3.778;-0.484;-1.693;0.695;3.4;-30.0;8.3;49.32;421;2018-04-16 22:38:41:687
2.923;-0.156;4.185;6.026;2.945;7.154;-3.103;-3.1;-2.969;-0.546;-2.07;0.987;3.5;-30.1;8.5;49.32;432;2018-04-16 22:38:41:698
2.923;-0.156;4.185;6.026;2.945;7.154;-3.103;-3.1;-2.969;-0.546;-2.07;0.987;3.5;-30.1;8.5;49.32;442;2018-04-16 22:38:41:708
3.318;-0.043;6.624;6.479;2.7;6.848;-3.161;-2.743;-0.225;-0.241;-2.82;1.815;3.5;-30.2;8.3;49.32;452;2018-04-16 22:38:41:718
3.318;-0.043;6.624;6.479;2.7;6.848;-3.161;-2.743;-0.225;-0.241;-2.82;1.815;3.5;-30.2;8.3;49.32;462;2018-04-16 22:38:41:728
5.909;-1.188;7.572;7.031;2.383;6.407;-1.122;-3.571;1.164;0.551;-3.286;2.733;3.9;-30.3;8.1;49.32;472;2018-04-16 22:38:41:738
6.607;-2.273;6.788;7.031;2.383;6.407;-1.122;-3.571;1.164;1.141;-3.476;3.084;3.9;-30.3;8.1;49.32;481;2018-04-16 22:38:41:747
6.607;-2.273;6.788;7.606;2.027;5.848;-1.0;-4.301;0.939;1.141;-3.476;3.084;4.0;-30.4;7.7;49.32;492;2018-04-16 22:38:41:758
6.152;-2.841;5.465;7.606;2.027;5.848;-1.0;-4.301;0.939;1.549;-3.498;3.361;4.0;-30.4;7.7;49.32;502;2018-04-16 22:38:41:768
6.152;-2.841;5.465;8.112;1.668;5.253;-2.04;-4.796;-0.853;1.731;-3.459;3.587;4.0;-30.5;7.4;49.32;512;2018-04-16 22:38:41:778
6.547;-3.328;3.649;8.112;1.668;5.253;-2.04;-4.796;-0.853;1.813;-3.478;3.884;4.0;-30.5;7.4;49.32;522;2018-04-16 22:38:41:788
7.354;-3.437;3.431;8.574;1.161;4.616;-1.221;-4.597;-1.185;1.794;-3.511;4.224;4.0;-30.6;7.0;49.32;532;2018-04-16 22:38:41:798
7.354;-3.437;3.431;8.574;1.161;4.616;-1.221;-4.597;-1.185;1.794;-3.511;4.224;4.0;-30.6;7.0;49.32;541;2018-04-16 22:38:41:807
9.117;-3.778;3.261;8.951;0.414;3.984;-0.348;-4.128;-0.587;1.431;-3.308;4.917;3.8;-30.7;6.7;49.32;551;2018-04-16 22:38:41:817
9.117;-3.778;3.261;8.951;0.414;3.984;-0.348;-4.128;-0.587;1.431;-3.308;4.917;3.8;-30.7;6.7;49.32;561;2018-04-16 22:38:41:827
11.161;-4.181;3.257;9.163;-0.475;3.462;1.998;-3.707;-0.205;0.588;-2.823;5.44;3.4;-30.7;6.6;49.32;572;2018-04-16 22:38:41:838
12.582;-3.966;3.728;9.163;-0.475;3.462;1.998;-3.707;-0.205;-0.104;-2.183;5.607;3.4;-30.7;6.6;49.32;582;2018-04-16 22:38:41:848
12.582;-3.966;3.728;9.193;-1.52;3.057;3.831;-2.228;0.769;-0.104;-2.183;5.607;1.5;-30.6;6.9;49.32;592;2018-04-16 22:38:41:858
14.159;-3.381;4.104;9.193;-1.52;3.057;3.831;-2.228;0.769;-0.661;-1.569;5.405;1.5;-30.6;6.9;49.32;601;2018-04-16 22:38:41:867
14.159;-3.381;4.104;9.067;-2.518;2.762;6.065;-0.763;2.088;-0.96;-1.293;4.947;-2.5;-29.9;8.4;49.32;612;2018-04-16 22:38:41:878
15.158;-3.233;6.037;8.986;-2.902;2.646;6.145;-0.378;2.204;-1.019;-1.177;4.606;-4.1;-29.8;8.5;49.32;621;2018-04-16 22:38:41:887
14.844;-3.159;7.215;8.847;-3.402;2.515;5.997;0.243;4.7;-0.97;-0.845;4.275;-5.5;-29.5;7.9;49.32;631;2018-04-16 22:38:41:897
14.844;-3.159;7.215;8.847;-3.402;2.515;5.997;0.243;4.7;-0.97;-0.845;4.275;-5.5;-29.5;7.9;49.32;641;2018-04-16 22:38:41:907
15.76;-3.749;7.606;8.589;-4.054;2.441;6.618;0.835;4.93;-0.775;0.087;3.663;-8.6;-28.8;8.1;48.53;651;2018-04-16 22:38:41:917
15.76;-3.749;7.606;8.589;-4.054;2.441;6.618;0.835;4.93;-0.775;0.087;3.663;-8.6;-28.8;8.1;48.53;661;2018-04-16 22:38:41:927
16.36;-5.465;8.662;8.261;-4.644;2.522;8.099;-0.821;6.14;-0.639;1.01;3.123;-11.1;-29.0;9.2;48.53;672;2018-04-16 22:38:41:938
16.257;-5.231;9.85;8.261;-4.644;2.522;8.099;-0.821;6.14;-0.231;1.487;2.776;-11.1;-29.0;9.2;48.53;682;2018-04-16 22:38:41:948
16.257;-5.231;9.85;7.921;-5.091;2.742;8.387;0.082;7.34;-0.231;1.487;2.776;-12.7;-27.5;5.9;48.53;692;2018-04-16 22:38:41:958
16.458;-4.998;10.245;7.573;-5.401;3.107;8.968;0.229;7.041;1.046;1.828;2.216;-14.2;-26.2;6.9;48.53;702;2018-04-16 22:38:41:968
16.458;-4.998;10.245;7.573;-5.401;3.107;8.968;0.229;7.041;1.046;1.828;2.216;-14.2;-26.2;6.9;48.53;712;2018-04-16 22:38:41:978
16.568;-5.489;10.141;7.573;-5.401;3.107;8.968;0.229;7.041;1.523;1.813;2.017;-14.2;-26.2;6.9;48.53;722;2018-04-16 22:38:41:988
16.175;-5.97;9.489;7.231;-5.572;3.583;8.944;-0.398;5.906;1.927;1.869;1.847;-17.0;-25.5;6.0;48.53;732;2018-04-16 22:38:41:998
16.175;-5.97;9.489;7.231;-5.572;3.583;8.944;-0.398;5.906;1.927;1.869;1.847;-17.0;-25.5;6.0;48.53;741;2018-04-16 22:38:42:007
15.241;-6.23;6.637;6.911;-5.609;4.117;8.33;-0.621;2.52;2.511;2.022;1.493;-17.6;-24.7;6.6;48.53;752;2018-04-16 22:38:42:018
15.241;-6.23;6.637;6.911;-5.609;4.117;8.33;-0.621;2.52;2.511;2.022;1.493;-17.6;-24.7;6.6;48.53;761;2018-04-16 22:38:42:027
13.89;-6.135;3.42;6.762;-5.588;4.384;8.062;-0.577;1.384;2.547;2.22;1.253;-18.3;-24.7;7.7;48.53;771;2018-04-16 22:38:42:037
13.89;-6.135;3.42;6.762;-5.588;4.384;8.062;-0.577;1.384;2.547;2.22;1.253;-18.3;-24.7;7.7;48.53;782;2018-04-16 22:38:42:048
10.623;-4.893;-5.704;6.394;-5.502;5.002;4.506;0.024;-4.222;1.994;0.269;1.229;-19.2;-23.1;6.8;48.53;792;2018-04-16 22:38:42:058
11.043;-3.656;-5.213;6.393;-5.522;4.981;4.651;1.866;-10.194;1.112;-1.326;1.233;-18.9;-21.8;7.4;48.53;801;2018-04-16 22:38:42:067
11.043;-3.656;-5.213;6.393;-5.522;4.981;4.651;1.866;-10.194;1.112;-1.326;1.233;-18.9;-21.8;7.4;48.53;812;2018-04-16 22:38:42:078
9.537;-3.844;2.148;6.467;-5.665;4.718;3.07;1.821;-2.57;-0.429;-1.808;0.888;-19.9;-22.1;9.0;48.53;822;2018-04-16 22:38:42:088
9.537;-3.844;2.148;6.467;-5.665;4.718;3.07;1.821;-2.57;-0.346;-1.939;0.694;-19.9;-22.1;9.0;48.53;832;2018-04-16 22:38:42:098
8.222;-6.23;4.624;6.589;-5.769;4.413;1.633;-0.461;0.212;-0.114;-2.294;0.58;-20.0;-22.3;9.5;48.53;842;2018-04-16 22:38:42:108
8.222;-6.23;4.624;6.589;-5.769;4.413;1.633;-0.461;0.212;-0.114;-2.294;0.58;-20.0;-22.3;9.5;48.53;851;2018-04-16 22:38:42:117
7.913;-4.636;4.902;6.734;-5.795;4.152;1.179;1.159;0.751;0.991;-2.567;0.75;-19.5;-21.6;9.8;48.53;861;2018-04-16 22:38:42:127
7.913;-4.636;4.902;6.734;-5.795;4.152;1.179;1.159;0.751;0.991;-2.567;0.75;-19.5;-21.6;9.8;48.53;871;2018-04-16 22:38:42:137
9.75;-3.365;8.738;6.81;-5.783;4.044;2.94;2.418;4.693;1.494;-2.728;0.739;-19.5;-21.5;10.2;48.53;881;2018-04-16 22:38:42:147
9.75;-3.365;8.738;6.81;-5.783;4.044;2.94;2.418;4.693;2.905;-2.665;-0.13;-19.5;-21.5;10.2;48.53;891;2018-04-16 22:38:42:157
8.751;-1.256;-2.345;7.147;-5.473;3.89;1.603;4.217;-6.235;2.269;-2.713;-0.426;-18.6;-20.3;14.1;48.53;901;2018-04-16 22:38:42:167
8.751;-1.256;-2.345;7.147;-5.473;3.89;1.603;4.217;-6.235;2.269;-2.713;-0.426;-18.6;-20.3;14.1;48.53;912;2018-04-16 22:38:42:178
7.029;-1.618;2.233;7.423;-5.251;3.672;0.509;3.547;-3.652;1.136;-2.281;-0.949;-18.0;-20.0;14.2;48.53;921;2018-04-16 22:38:42:187
5.367;-2.538;3.299;7.712;-4.994;3.429;-2.345;2.456;-0.13;1.199;-2.415;-1.118;-17.9;-20.6;14.7;48.53;931;2018-04-16 22:38:42:197
5.367;-2.538;3.299;7.712;-4.994;3.429;-2.345;2.456;-0.13;1.638;-2.864;-1.167;-17.9;-20.6;14.7;48.53;942;2018-04-16 22:38:42:208
5.367;-2.538;3.299;7.712;-4.994;3.429;-2.345;2.456;-0.13;1.638;-2.864;-1.167;-17.9;-20.6;14.7;48.53;952;2018-04-16 22:38:42:218
1.964;-3.486;0.879;8.015;-4.719;3.108;-6.05;1.233;-2.229;1.715;-3.33;-0.922;-17.0;-19.0;15.2;48.53;962;2018-04-16 22:38:42:228
2.065;-3.621;2.829;8.256;-4.56;2.686;-6.191;0.939;0.143;1.517;-3.548;-0.579;-15.8;-18.8;16.9;48.53;972;2018-04-16 22:38:42:238
2.065;-3.621;2.829;8.256;-4.56;2.686;-6.191;0.939;0.143;1.351;-3.102;-0.224;-15.8;-18.8;16.9;48.49;982;2018-04-16 22:38:42:248
2.065;-3.621;2.829;8.256;-4.56;2.686;-6.191;0.939;0.143;1.351;-3.102;-0.224;-15.8;-18.8;16.9;48.49;992;2018-04-16 22:38:42:258
3.236;-3.795;0.138;8.406;-4.495;2.303;-5.17;0.7;-2.165;1.185;-2.949;0.1;-14.8;-17.9;17.9;48.49;1001;2018-04-16 22:38:42:267
5.151;-1.283;-1.105;8.507;-4.491;1.904;-3.356;3.208;-3.009;0.644;-2.655;0.132;-13.0;-16.4;18.2;48.49;1011;2018-04-16 22:38:42:277
5.151;-1.283;-1.105;8.507;-4.491;1.904;-3.356;3.208;-3.009;0.21;-2.381;0.002;-13.0;-16.4;18.2;48.49;1022;2018-04-16 22:38:42:288
6.472;0.828;0.19;8.589;-4.482;1.517;-2.118;5.31;-1.327;0.21;-2.381;0.002;-12.4;-17.5;17.1;48.49;1032;2018-04-16 22:38:42:298
6.472;0.828;0.19;8.589;-4.482;1.517;-2.118;5.31;-1.327;-0.412;-1.879;-0.167;-12.4;-17.5;17.1;48.49;1042;2018-04-16 22:38:42:308
8.906;-2.285;1.421;8.66;-4.447;1.183;0.247;2.162;0.238;-0.665;-1.555;-0.305;-11.7;-17.3;19.8;48.49;1052;2018-04-16 22:38:42:318
8.906;-2.285;1.421;8.66;-4.447;1.183;0.247;2.162;0.238;-0.853;-1.423;-0.4;-11.7;-17.3;19.8;48.49;1062;2018-04-16 22:38:42:328
10.139;-4.278;4.189;8.724;-4.395;0.868;1.416;0.117;3.321;-0.853;-1.423;-0.4;-11.1;-17.5;18.5;48.49;1072;2018-04-16 22:38:42:338
10.139;-4.278;4.189;8.724;-4.395;0.868;1.416;0.117;3.321;-0.896;-1.233;-0.304;-11.1;-17.5;18.5;48.49;1081;2018-04-16 22:38:42:347
13.024;-5.043;4.175;8.745;-4.377;0.73;4.279;-0.666;3.446;-0.529;-0.646;-0.249;-10.2;-16.9;17.6;48.49;1092;2018-04-16 22:38:42:358
13.024;-5.043;4.175;8.745;-4.377;0.73;4.279;-0.666;3.446;-0.529;-0.646;-0.249;-10.2;-16.9;17.6;48.49;1102;2018-04-16 22:38:42:368
12.476;-2.563;-0.002;8.774;-4.336;0.629;3.703;1.773;-0.631;-0.303;-0.15;-0.28;-9.2;-17.9;19.0;48.49;1112;2018-04-16 22:38:42:378
12.476;-2.563;-0.002;8.774;-4.336;0.629;3.703;1.773;-0.631;-0.327;0.187;-0.307;-9.2;-17.9;19.0;48.49;1121;2018-04-16 22:38:42:387
12.238;-0.019;-3.395;8.802;-4.279;0.623;3.436;4.26;-4.018;-0.679;-0.11;-0.716;-9.3;-17.4;18.9;48.49;1132;2018-04-16 22:38:42:398
11.586;-1.273;-2.623;8.886;-4.117;0.508;1.136;3.615;-2.975;-0.864;-0.351;-1.12;-9.2;-18.2;20.2;48.49;1142;2018-04-16 22:38:42:408
8.616;-0.169;-0.87;8.886;-4.117;0.508;1.136;3.615;-2.975;-0.864;-0.351;-1.12;-9.2;-18.2;20.2;48.49;1152;2018-04-16 22:38:42:418
8.616;-0.169;-0.87;8.886;-4.117;0.508;1.136;3.615;-2.975;-1.115;-1.42;-1.104;-9.2;-18.2;20.2;48.49;1161;2018-04-16 22:38:42:427
7.044;-1.415;2.643;8.97;-3.96;0.168;-1.926;2.545;2.475;-0.823;-1.498;0.136;-8.5;-18.6;19.2;48.49;1171;2018-04-16 22:38:42:437
7.044;-1.415;2.643;8.97;-3.96;0.168;-1.926;2.545;2.475;-0.823;-1.498;0.136;-8.5;-18.6;19.2;48.49;1182;2018-04-16 22:38:42:448
4.702;-6.206;4.16;8.908;-4.099;-0.072;-4.206;-2.106;4.232;-0.645;-0.634;1.256;-8.2;-18.3;20.1;48.49;1192;2018-04-16 22:38:42:458
4.702;-6.206;4.16;8.908;-4.099;-0.072;-4.206;-2.106;4.232;-0.594;0.156;2.721;-8.2;-18.3;20.1;48.49;1202;2018-04-16 22:38:42:468
2.265;-10.461;-1.014;8.578;-4.752;-0.074;-6.313;-5.709;-0.94;-0.842;-0.296;5.829;-8.3;-18.4;20.5;48.49;1211;2018-04-16 22:38:42:477
2.169;-9.602;-4.441;8.578;-4.752;-0.074;-6.313;-5.709;-0.94;-0.842;-0.296;5.829;-8.3;-18.4;20.5;48.49;1221;2018-04-16 22:38:42:487
2.623;-8.232;-1.707;7.888;-5.816;-0.34;-5.736;-3.521;-3.734;-0.786;-1.704;6.91;-9.1;-18.3;20.5;48.49;1231;2018-04-16 22:38:42:497
2.623;-8.232;-1.707;7.888;-5.816;-0.34;-5.736;-3.521;-3.734;-0.127;-3.178;8.142;-9.1;-18.3;20.5;48.49;1241;2018-04-16 22:38:42:507
3.05;-4.654;2.291;6.807;-7.014;-0.806;-3.971;0.485;1.729;0.987;-3.049;8.473;-9.2;-17.7;20.7;48.49;1252;2018-04-16 22:38:42:518
3.05;-4.654;2.291;6.807;-7.014;-0.806;-3.971;0.485;1.729;0.987;-3.049;8.473;-9.2;-17.7;20.7;48.49;1262;2018-04-16 22:38:42:528
1.688;-2.048;0.713;5.506;-8.062;-0.922;-2.911;5.896;3.13;1.783;-2.387;8.131;-8.9;-17.6;20.6;48.49;1272;2018-04-16 22:38:42:538
1.688;-2.048;0.713;5.506;-8.062;-0.922;-2.911;5.896;3.13;1.783;-2.387;8.131;-8.9;-17.6;20.6;48.49;1282;2018-04-16 22:38:42:548
1.247;-2.184;0.267;4.256;-8.809;-0.671;-2.665;6.572;0.631;2.529;-1.532;7.084;-8.6;-17.4;21.0;48.49;1292;2018-04-16 22:38:42:558
1.247;-2.184;0.267;4.256;-8.809;-0.671;-2.665;6.572;0.631;2.693;-1.349;6.647;-8.6;-17.4;21.0;49.31;1302;2018-04-16 22:38:42:568
0.528;-2.738;0.579;3.034;-9.321;-0.286;-2.309;6.591;-0.024;2.599;-1.505;6.358;-8.8;-16.3;21.9;49.31;1312;2018-04-16 22:38:42:578
0.528;-2.738;0.579;3.034;-9.321;-0.286;-2.309;6.591;-0.024;2.353;-1.356;6.066;-8.8;-16.3;23.5;49.31;1322;2018-04-16 22:38:42:588
-0.347;-2.988;3.571;1.852;-9.629;0.113;-1.985;6.545;2.027;2.353;-1.356;6.066;-9.3;-13.5;23.5;49.31;1332;2018-04-16 22:38:42:598
-0.347;-2.988;3.571;1.852;-9.629;0.113;-1.985;6.545;2.027;1.378;0.088;5.661;-9.3;-13.5;23.5;49.31;1341;2018-04-16 22:38:42:607
-0.15;-1.981;0.954;0.761;-9.77;0.363;-0.995;7.273;2.903;-0.27;2.035;5.153;-10.2;-10.3;23.6;49.31;1351;2018-04-16 22:38:42:617
-0.15;-1.981;0.954;0.761;-9.77;0.363;-0.995;7.273;2.903;-0.27;2.035;5.153;-10.2;-10.3;23.6;49.31;1361;2018-04-16 22:38:42:627
-0.14;-1.565;-1.652;-0.233;-9.801;0.242;0.093;8.236;-1.894;-0.999;2.039;4.887;-11.2;-7.4;24.9;49.31;1372;2018-04-16 22:38:42:638
-0.14;-1.565;-1.652;-0.233;-9.801;0.242;0.093;8.236;-1.894;-0.999;2.039;4.887;-11.2;-7.4;24.9;49.31;1381;2018-04-16 22:38:42:647
0.02;-1.735;-2.702;-1.123;-9.742;0.031;1.143;8.007;-2.733;-1.053;-0.728;4.396;-12.2;-6.1;24.0;49.31;1392;2018-04-16 22:38:42:658
0.02;-1.735;-2.702;-1.123;-9.742;0.031;1.143;8.007;-2.733;-0.787;-2.828;4.685;-12.2;-6.1;24.0;49.31;1402;2018-04-16 22:38:42:668
-16.621;-39.185;-3.266;-2.114;-9.576;-0.033;-14.506;-29.609;-3.233;-0.979;-5.765;7.674;-12.3;-5.7;23.3;49.31;1412;2018-04-16 22:38:42:678
6.208;-39.185;-2.832;-2.114;-9.576;-0.033;-14.506;-29.609;-3.233;-0.979;-5.765;7.674;-12.3;-5.7;23.3;49.31;1422;2018-04-16 22:38:42:688
6.208;-39.185;-2.832;-3.047;-9.321;0.023;2.943;-27.697;2.304;-2.051;-7.016;2.733;-10.5;-3.2;28.5;49.31;1432;2018-04-16 22:38:42:698
-10.878;-29.021;7.066;-2.763;-9.409;-0.09;2.658;-27.609;2.417;-3.192;-6.556;-2.932;-10.5;-3.2;28.5;49.31;1442;2018-04-16 22:38:42:708
-3.413;-8.535;-0.861;-2.509;-9.479;-0.142;-0.904;0.944;-0.719;-1.159;-6.977;-1.056;-6.4;-4.6;26.8;49.31;1452;2018-04-16 22:38:42:718
-3.413;-8.535;-0.861;-2.509;-9.479;-0.142;-0.904;0.944;-0.719;-1.159;-6.977;-1.056;-6.4;-4.6;26.8;49.31;1461;2018-04-16 22:38:42:727
-1.143;-2.51;1.699;-2.348;-9.501;0.624;1.204;6.991;1.075;1.1;-9.159;-0.663;-3.2;-5.5;26.2;49.31;1471;2018-04-16 22:38:42:737
-1.143;-2.51;1.699;-2.348;-9.501;0.624;1.204;6.991;1.075;2.304;-9.352;-0.611;-3.2;-5.5;26.2;49.31;1481;2018-04-16 22:38:42:747
-2.774;-1.363;-1.814;-2.198;-9.492;1.113;-0.575;8.129;-2.926;2.26;-5.192;-0.615;1.2;-5.1;27.2;49.31;1491;2018-04-16 22:38:42:757
-2.774;-1.363;-1.814;-2.198;-9.492;1.113;-0.575;8.129;-2.926;2.26;-5.192;-0.615;1.2;-5.1;27.2;49.31;1501;2018-04-16 22:38:42:767
-6.859;-4.966;-1.282;-2.035;-9.471;1.525;-4.824;4.505;-2.807;0.919;-1.018;-0.346;4.2;-3.7;26.5;49.31;1511;2018-04-16 22:38:42:777
-6.859;-4.966;-1.282;-2.035;-9.471;1.525;-4.824;4.505;-2.807;-0.644;3.488;-0.21;4.2;-3.7;26.5;49.31;1521;2018-04-16 22:38:42:787
-4.28;-7.683;3.066;-2.097;-9.494;1.276;-2.183;1.811;1.79;-0.644;3.488;-0.21;5.4;-2.4;26.5;49.31;1532;2018-04-16 22:38:42:798
-4.334;-8.972;3.515;-2.12;-9.513;1.084;-2.159;1.83;1.981;-1.032;5.468;-0.425;4.9;-3.1;27.7;49.31;1541;2018-04-16 22:38:42:807
-4.334;-8.972;3.515;-2.12;-9.513;1.084;-2.159;1.83;1.981;-0.861;6.451;-0.293;4.9;-3.1;27.7;49.31;1551;2018-04-16 22:38:42:817
-4.931;-11.443;-1.058;-2.12;-9.513;1.084;-2.159;1.83;1.981;-0.861;6.451;-0.293;4.9;-3.1;27.7;49.31;1562;2018-04-16 22:38:42:828
-3.068;-10.37;-2.43;-2.191;-9.549;0.435;-2.457;-1.967;-3.152;-0.591;6.049;-0.02;1.0;-3.7;28.5;49.31;1571;2018-04-16 22:38:42:837
-3.068;-10.37;-2.43;-2.267;-9.536;0.315;0.141;0.064;-1.349;0.331;3.715;0.302;-2.6;-3.6;27.6;49.31;1582;2018-04-16 22:38:42:848
-2.623;-9.446;-0.535;-2.267;-9.536;0.315;0.141;0.064;-1.349;0.467;2.575;0.012;-2.6;-3.6;27.6;49.31;1592;2018-04-16 22:38:42:858
-2.623;-9.446;-0.535;-2.267;-9.536;0.315;0.141;0.064;-1.349;0.385;2.103;-0.016;-2.6;-3.6;27.6;49.31;1602;2018-04-16 22:38:42:868
-2.933;-9.613;-0.597;-2.283;-9.533;0.283;-0.65;-0.08;-0.88;0.385;2.103;-0.016;-3.6;-3.1;27.9;49.31;1612;2018-04-16 22:38:42:878
-2.933;-9.613;-0.597;-2.283;-9.533;0.283;-0.65;-0.08;-0.88;0.247;1.363;0.187;-3.6;-3.1;27.9;67.48;1622;2018-04-16 22:38:42:888
-1.949;-9.124;-0.688;-2.323;-9.524;0.258;0.374;0.4;-0.946;0.078;0.656;0.217;-4.7;-3.1;27.6;67.48;1632;2018-04-16 22:38:42:898
-1.949;-9.124;-0.688;-2.323;-9.524;0.258;0.374;0.4;-0.946;0.078;0.656;0.217;-4.7;-3.1;27.6;67.48;1642;2018-04-16 22:38:42:908
-1.833;-9.59;-0.314;-2.36;-9.515;0.238;0.527;-0.075;-0.552;-0.012;0.204;0.204;-4.8;-3.5;26.8;67.48;1652;2018-04-16 22:38:42:918
-1.833;-9.59;-0.314;-2.36;-9.515;0.238;0.527;-0.075;-0.552;-0.119;-0.358;0.236;-4.8;-3.5;26.8;67.48;1662;2018-04-16 22:38:42:928
-1.604;-9.789;0.108;-2.397;-9.506;0.231;0.793;-0.282;-0.123;-0.213;-0.722;0.275;-4.6;-3.3;28.9;67.48;1672;2018-04-16 22:38:42:938
-1.604;-9.789;0.108;-2.397;-9.506;0.231;0.793;-0.282;-0.123;-0.213;-0.722;0.275;-4.6;-3.3;28.9;67.48;1681;2018-04-16 22:38:42:947
-1.427;-9.692;0.362;-2.438;-9.496;0.223;1.011;-0.196;0.139;-0.283;-0.843;0.281;-4.3;-3.2;28.8;67.48;1691;2018-04-16 22:38:42:957
-1.427;-9.692;0.362;-2.438;-9.496;0.223;1.011;-0.196;0.139;-0.357;-0.91;0.274;-4.3;-3.2;28.8;67.48;1701;2018-04-16 22:38:42:967
-1.184;-9.519;0.522;-2.473;-9.487;0.204;1.289;-0.032;0.318;-0.371;-0.918;0.241;-3.4;-3.6;28.6;67.48;1711;2018-04-16 22:38:42:977
-0.966;-9.495;0.59;-2.496;-9.482;0.189;1.53;-0.014;0.402;-0.331;-0.921;0.184;-2.3;-3.5;28.4;67.48;1722;2018-04-16 22:38:42:988
-0.966;-9.495;0.59;-2.496;-9.482;0.189;1.53;-0.014;0.402;-0.257;-0.92;0.137;-2.3;-3.5;28.4;67.48;1732;2018-04-16 22:38:42:998
-0.746;-9.379;0.672;-2.496;-9.482;0.189;1.53;-0.014;0.402;-0.257;-0.92;0.137;-2.3;-3.5;28.4;67.48;1742;2018-04-16 22:38:43:008
-0.785;-9.604;0.541;-2.499;-9.481;0.201;1.784;0.01;0.451;-0.154;-0.908;0.081;-1.9;-3.7;28.7;67.48;1752;2018-04-16 22:38:43:018
-0.785;-9.604;0.541;-2.499;-9.481;0.201;1.784;0.01;0.451;-0.02;-0.915;0.021;-1.9;-3.7;28.7;67.48;1762;2018-04-16 22:38:43:028
-1.025;-9.708;0.33;-2.475;-9.485;0.278;1.451;-0.224;0.053;0.564;-1.295;-0.109;-1.1;-3.7;29.2;67.48;1772;2018-04-16 22:38:43:038
-1.025;-9.708;0.33;-2.475;-9.485;0.278;1.451;-0.224;0.053;0.564;-1.295;-0.109;-1.1;-3.7;29.2;67.48;1782;2018-04-16 22:38:43:048
-1.897;-9.693;0.127;-2.436;-9.488;0.473;0.538;-0.205;-0.346;0.777;-1.377;-0.125;-1.7;-4.4;27.9;67.48;1792;2018-04-16 22:38:43:058
-2.304;-9.469;-0.464;-2.395;-9.486;0.677;-0.143;0.091;-1.452;0.847;-1.241;-0.136;-1.6;-3.8;28.8;67.48;1802;2018-04-16 22:38:43:068
-2.916;-9.351;-1.191;-2.395;-9.486;0.677;-0.143;0.091;-1.452;0.742;-1.001;-0.175;-1.6;-3.8;28.8;67.48;1812;2018-04-16 22:38:43:078
-2.916;-9.351;-1.191;-2.395;-9.486;0.677;-0.143;0.091;-1.452;0.742;-1.001;-0.175;-1.6;-3.8;28.8;67.48;1822;2018-04-16 22:38:43:088
-3.229;-9.373;-1.29;-2.354;-9.484;0.826;-0.875;0.111;-2.116;0.583;-0.764;-0.172;-1.7;-3.4;28.7;67.48;1832;2018-04-16 22:38:43:098
-3.417;-9.361;-0.983;-2.354;-9.484;0.826;-0.875;0.111;-2.116;0.217;-0.224;-0.123;-1.7;-3.4;28.7;67.48;1842;2018-04-16 22:38:43:108
-3.417;-9.394;-0.455;-2.334;-9.486;0.859;-1.086;0.134;-1.683;-0.217;0.421;-0.078;-2.4;-3.5;28.7;67.48;1852;2018-04-16 22:38:43:118
-3.417;-9.394;-0.455;-2.334;-9.486;0.859;-1.086;0.134;-1.683;-0.217;0.421;-0.078;-2.4;-3.5;28.7;67.48;1861;2018-04-16 22:38:43:127
-3.33;-9.479;-0.124;-2.34;-9.493;0.757;-1.035;0.078;-1.057;-0.441;0.779;-0.042;-2.6;-3.5;28.7;67.48;1871;2018-04-16 22:38:43:137
-3.055;-9.489;0.17;-2.359;-9.5;0.593;-0.696;0.011;-0.423;-0.589;1.07;0.0;-2.6;-3.4;28.7;67.48;1882;2018-04-16 22:38:43:148
-3.055;-9.489;0.17;-2.359;-9.5;0.593;-0.696;0.011;-0.423;-0.538;1.108;0.005;-2.6;-3.4;28.7;67.48;1892;2018-04-16 22:38:43:158
-2.872;-9.384;0.365;-2.359;-9.5;0.593;-0.696;0.011;-0.423;-0.538;1.108;0.005;-2.6;-3.4;28.7;67.48;1902;2018-04-16 22:38:43:168
-2.552;-9.319;0.564;-2.376;-9.504;0.45;-0.413;0.15;0.003;-0.424;1.036;0.012;-2.5;-3.4;28.7;67.48;1912;2018-04-16 22:38:43:178
-2.552;-9.319;0.564;-2.389;-9.504;0.369;-0.009;0.137;0.267;-0.221;0.887;0.027;-2.3;-3.4;28.8;67.48;1922;2018-04-16 22:38:43:188
-2.354;-9.439;0.618;-2.389;-9.504;0.369;-0.009;0.137;0.267;-0.075;0.77;0.013;-2.3;-3.4;28.8;67.48;1932;2018-04-16 22:38:43:198
-2.354;-9.439;0.618;-2.396;-9.504;0.328;0.142;0.017;0.156;-0.011;0.709;0.012;-2.1;-3.5;29.0;51.32;1942;2018-04-16 22:38:43:208
-2.137;-9.513;0.324;-2.396;-9.504;0.328;0.142;0.017;0.156;-0.011;0.709;0.012;-2.1;-3.5;29.0;51.32;1952;2018-04-16 22:38:43:218
-2.137;-9.513;0.324;-2.396;-9.504;0.328;0.142;0.017;0.156;0.034;0.585;0.02;-2.1;-3.5;29.0;51.32;1962;2018-04-16 22:38:43:228
-1.948;-9.565;0.063;-2.4;-9.503;0.306;0.358;-0.038;-0.131;0.043;0.402;0.022;-1.9;-3.5;28.9;51.32;1972;2018-04-16 22:38:43:238
-1.948;-9.565;0.063;-2.4;-9.503;0.306;0.358;-0.038;-0.131;0.043;0.402;0.022;-1.9;-3.5;28.9;51.32;1982;2018-04-16 22:38:43:248
-1.884;-9.559;0.006;-2.402;-9.503;0.296;0.518;-0.056;-0.29;0.037;0.253;0.026;-1.7;-3.5;28.9;51.32;1992;2018-04-16 22:38:43:258
-1.884;-9.559;0.006;-2.402;-9.503;0.296;0.518;-0.056;-0.29;0.023;-0.005;0.026;-1.7;-3.5;28.9;51.32;2001;2018-04-16 22:38:43:267
-1.7;-9.541;-0.068;-2.4;-9.504;0.297;0.7;-0.037;-0.366;0.016;-0.376;0.02;-1.6;-3.5;28.9;51.32;2011;2018-04-16 22:38:43:277
-1.7;-9.541;-0.068;-2.4;-9.504;0.297;0.7;-0.037;-0.366;0.016;-0.376;0.02;-1.6;-3.5;28.9;51.32;2021;2018-04-16 22:38:43:287
-1.616;-9.523;-0.004;-2.393;-9.505;0.321;0.777;-0.018;-0.325;0.024;-0.55;0.016;-1.5;-3.5;28.9;51.32;2031;2018-04-16 22:38:43:297
-1.676;-9.534;0.062;-2.38;-9.506;0.366;0.704;-0.027;-0.303;0.043;-0.698;0.006;-1.4;-3.5;28.8;51.32;2042;2018-04-16 22:38:43:308
-1.676;-9.534;0.062;-2.38;-9.506;0.366;0.704;-0.027;-0.303;0.105;-0.902;-0.022;-1.4;-3.5;28.8;51.32;2052;2018-04-16 22:38:43:318
-1.915;-9.573;0.048;-2.38;-9.506;0.366;0.704;-0.027;-0.303;0.105;-0.902;-0.022;-1.4;-3.5;28.8;51.32;2062;2018-04-16 22:38:43:328
-2.13;-9.516;-0.005;-2.363;-9.508;0.431;0.379;-0.054;-0.388;0.148;-0.953;-0.029;-1.4;-3.4;28.7;51.32;2072;2018-04-16 22:38:43:338
-2.13;-9.516;-0.005;-2.363;-9.508;0.431;0.379;-0.054;-0.388;0.189;-0.943;-0.039;-1.4;-3.4;28.7;51.32;2082;2018-04-16 22:38:43:348
-2.257;-9.481;-0.045;-2.345;-9.509;0.506;0.088;0.028;-0.551;0.181;-0.805;-0.044;-1.3;-3.3;28.8;51.32;2092;2018-04-16 22:38:43:358
-2.257;-9.481;-0.045;-2.345;-9.509;0.506;0.088;0.028;-0.551;0.181;-0.805;-0.044;-1.3;-3.3;28.8;51.32;2102;2018-04-16 22:38:43:368
-2.43;-9.42;-0.063;-2.329;-9.509;0.563;-0.101;0.089;-0.626;0.137;-0.646;-0.045;-1.3;-3.2;28.9;51.32;2112;2018-04-16 22:38:43:378
-2.523;-9.4;-0.032;-2.329;-9.509;0.563;-0.101;0.089;-0.626;0.032;-0.335;-0.04;-1.3;-3.2;28.9;51.32;2122;2018-04-16 22:38:43:388
-2.587;-9.446;0.032;-2.319;-9.511;0.577;-0.238;0.096;-0.596;-0.09;-0.001;-0.033;-1.3;-3.2;28.8;51.32;2132;2018-04-16 22:38:43:398
-2.587;-9.446;0.032;-2.319;-9.511;0.577;-0.238;0.096;-0.596;-0.09;-0.001;-0.033;-1.3;-3.2;28.8;51.32;2142;2018-04-16 22:38:43:408
-2.622;-9.507;0.078;-2.317;-9.513;0.542;-0.302;0.02;-0.499;-0.158;0.191;-0.028;-1.3;-3.3;28.8;51.32;2152;2018-04-16 22:38:43:418
-2.622;-9.507;0.078;-2.317;-9.513;0.542;-0.302;0.02;-0.499;-0.206;0.382;-0.023;-1.3;-3.3;28.8;51.32;2162;2018-04-16 22:38:43:428
-2.614;-9.511;0.127;-2.319;-9.516;0.482;-0.295;0.005;-0.355;-0.192;0.45;-0.027;-1.4;-3.3;28.8;51.32;2172;2018-04-16 22:38:43:438
-2.614;-9.511;0.127;-2.319;-9.516;0.482;-0.295;0.005;-0.355;-0.192;0.45;-0.027;-1.4;-3.3;28.8;51.32;2181;2018-04-16 22:38:43:447
-2.595;-9.483;0.22;-2.32;-9.519;0.425;-0.275;0.035;-0.205;-0.16;0.442;-0.028;-1.4;-3.4;28.9;51.32;2191;2018-04-16 22:38:43:457
-2.595;-9.483;0.22;-2.32;-9.519;0.425;-0.275;0.035;-0.205;-0.106;0.39;-0.029;-1.4;-3.4;28.9;51.32;2201;2018-04-16 22:38:43:467
-2.526;-9.433;0.275;-2.32;-9.52;0.386;-0.206;0.087;-0.111;-0.071;0.323;-0.029;-1.3;-3.3;29.0;51.32;2211;2018-04-16 22:38:43:477
-2.526;-9.433;0.275;-2.32;-9.52;0.386;-0.206;0.087;-0.111;-0.071;0.323;-0.029;-1.3;-3.3;29.0;51.32;2221;2018-04-16 22:38:43:487
-2.462;-9.391;0.259;-2.319;-9.522;0.359;-0.144;0.131;-0.1;-0.061;0.274;-0.028;-1.3;-3.4;29.1;51.32;2232;2018-04-16 22:38:43:498
-2.462;-9.391;0.259;-2.319;-9.522;0.359;-0.144;0.131;-0.1;-0.05;0.181;-0.027;-1.3;-3.4;29.1;51.32;2241;2018-04-16 22:38:43:507
-2.454;-9.41;0.218;-2.316;-9.523;0.34;-0.138;0.113;-0.122;-0.023;0.048;-0.024;-1.2;-3.4;29.1;51.32;2251;2018-04-16 22:38:43:517
-2.455;-9.445;0.235;-2.316;-9.523;0.34;-0.138;0.113;-0.122;-0.023;0.048;-0.024;-1.2;-3.4;29.1;51.32;2261;2018-04-16 22:38:43:527
-2.419;-9.408;0.267;-2.314;-9.524;0.337;-0.131;0.076;-0.081;0.006;-0.042;-0.022;-1.2;-3.4;29.1;51.32;2271;2018-04-16 22:38:43:537
-2.419;-9.408;0.267;-2.314;-9.524;0.337;-0.131;0.076;-0.081;0.037;-0.139;-0.021;-1.2;-3.4;29.1;50.72;2281;2018-04-16 22:38:43:547
-2.369;-9.396;0.285;-2.311;-9.524;0.35;-0.058;0.128;-0.066;0.061;-0.186;-0.018;-1.1;-3.4;29.2;50.72;2291;2018-04-16 22:38:43:557
-2.319;-9.361;0.243;-2.307;-9.524;0.369;-0.005;0.153;-0.16;0.068;-0.182;-0.022;-1.0;-3.4;29.2;50.72;2302;2018-04-16 22:38:43:568
-2.349;-9.378;0.135;-2.307;-9.524;0.369;-0.005;0.153;-0.16;0.068;-0.182;-0.022;-1.0;-3.4;29.2;50.72;2312;2018-04-16 22:38:43:578
-2.349;-9.378;0.135;-2.302;-9.525;0.388;-0.069;0.126;-0.312;0.077;-0.17;-0.024;-0.9;-3.4;29.2;50.72;2322;2018-04-16 22:38:43:588
-2.413;-9.43;0.043;-2.302;-9.525;0.388;-0.069;0.126;-0.312;0.094;-0.148;-0.029;-0.9;-3.4;29.2;50.72;2331;2018-04-16 22:38:43:597
-2.413;-9.43;0.043;-2.297;-9.525;0.406;-0.14;0.08;-0.406;0.094;-0.121;-0.028;-0.8;-3.4;29.2;50.72;2342;2018-04-16 22:38:43:608
-2.442;-9.433;-0.008;-2.297;-9.525;0.406;-0.14;0.08;-0.406;0.094;-0.121;-0.028;-0.8;-3.4;29.2;50.72;2352;2018-04-16 22:38:43:618
-2.442;-9.433;-0.008;-2.297;-9.525;0.406;-0.14;0.08;-0.406;0.075;-0.059;-0.023;-0.8;-3.4;29.2;50.72;2362;2018-04-16 22:38:43:628
-2.446;-9.434;0.011;-2.295;-9.525;0.414;-0.15;0.091;-0.403;0.034;0.043;-0.012;-0.8;-3.4;29.2;50.72;2372;2018-04-16 22:38:43:638
-2.446;-9.434;0.011;-2.295;-9.525;0.414;-0.15;0.091;-0.403;0.034;0.043;-0.012;-0.8;-3.4;29.2;50.72;2382;2018-04-16 22:38:43:648
-2.406;-9.462;0.008;-2.297;-9.525;0.403;-0.11;0.063;-0.395;0.002;0.116;-0.009;-0.7;-3.4;29.2;50.72;2392;2018-04-16 22:38:43:658
-2.406;-9.462;0.008;-2.297;-9.525;0.403;-0.11;0.063;-0.395;-0.027;0.209;-0.002;-0.7;-3.4;29.2;50.72;2402;2018-04-16 22:38:43:668
-2.286;-9.48;0.02;-2.298;-9.526;0.379;0.011;0.046;-0.359;-0.039;0.253;-0.002;-0.8;-3.4;29.2;50.72;2412;2018-04-16 22:38:43:678
-2.286;-9.48;0.02;-2.298;-9.526;0.379;0.011;0.046;-0.359;-0.039;0.253;-0.002;-0.8;-3.4;29.2;50.72;2422;2018-04-16 22:38:43:688
-2.169;-9.54;0.045;-2.298;-9.527;0.357;0.129;-0.013;-0.311;-0.037;0.266;-0.004;-0.8;-3.4;29.2;50.72;2432;2018-04-16 22:38:43:698
-2.169;-9.54;0.045;-2.298;-9.527;0.357;0.129;-0.013;-0.311;-0.032;0.274;-0.01;-0.8;-3.4;29.2;50.72;2442;2018-04-16 22:38:43:708
-2.099;-9.51;0.108;-2.296;-9.528;0.336;0.197;0.018;-0.228;-0.037;0.261;-0.016;-0.8;-3.4;29.2;50.72;2452;2018-04-16 22:38:43:718
-2.099;-9.51;0.108;-2.296;-9.528;0.336;0.197;0.018;-0.228;-0.037;0.261;-0.016;-0.8;-3.4;29.2;50.72;2462;2018-04-16 22:38:43:728
-2.088;-9.475;0.086;-2.292;-9.53;0.315;0.204;0.055;-0.229;-0.034;0.232;-0.02;-0.9;-3.3;29.2;50.72;2472;2018-04-16 22:38:43:738
-2.088;-9.475;0.086;-2.292;-9.53;0.315;0.204;0.055;-0.229;-0.021;0.161;-0.024;-0.9;-3.3;29.2;50.72;2482;2018-04-16 22:38:43:748
-2.156;-9.486;0.095;-2.287;-9.531;0.303;0.131;0.046;-0.208;0.005;0.066;-0.022;-0.9;-3.3;29.2;50.72;2492;2018-04-16 22:38:43:758
-2.156;-9.486;0.095;-2.287;-9.531;0.303;0.131;0.046;-0.208;0.005;0.066;-0.022;-0.9;-3.3;29.2;50.72;2502;2018-04-16 22:38:43:768
-2.285;-9.503;0.079;-2.283;-9.532;0.301;-0.002;0.03;-0.222;0.042;-0.051;-0.012;-1.0;-3.4;29.1;50.72;2512;2018-04-16 22:38:43:778
-2.314;-9.494;0.056;-2.283;-9.532;0.301;-0.002;0.03;-0.222;0.042;-0.051;-0.012;-1.0;-3.4;29.1;50.72;2522;2018-04-16 22:38:43:788
-2.297;-9.488;0.029;-2.281;-9.533;0.307;-0.038;0.04;-0.264;0.055;-0.093;-0.009;-1.0;-3.4;29.1;50.72;2532;2018-04-16 22:38:43:798
-2.297;-9.488;0.029;-2.281;-9.533;0.307;-0.038;0.04;-0.264;0.055;-0.093;-0.009;-1.0;-3.4;29.1;50.72;2542;2018-04-16 22:38:43:808
-2.227;-9.481;-0.018;-2.28;-9.533;0.317;0.017;0.046;-0.308;0.06;-0.139;0.004;-1.0;-3.4;29.2;50.72;2552;2018-04-16 22:38:43:818
-2.227;-9.481;-0.018;-2.28;-9.533;0.317;0.017;0.046;-0.308;0.049;-0.134;0.007;-1.0;-3.4;29.2;50.72;2562;2018-04-16 22:38:43:828
-2.191;-9.468;-0.06;-2.28;-9.532;0.324;0.072;0.069;-0.356;0.013;-0.084;0.007;-1.0;-3.4;29.3;50.72;2572;2018-04-16 22:38:43:838
-2.191;-9.468;-0.06;-2.28;-9.532;0.324;0.072;0.069;-0.356;0.013;-0.084;0.007;-1.0;-3.4;29.3;50.72;2582;2018-04-16 22:38:43:848
-2.193;-9.473;-0.055;-2.278;-9.533;0.319;0.085;0.06;-0.375;-0.005;-0.053;0.002;-1.0;-3.4;29.1;50.72;2591;2018-04-16 22:38:43:857
-2.193;-9.473;-0.055;-2.278;-9.533;0.319;0.085;0.06;-0.375;-0.023;-0.016;-0.001;-1.0;-3.4;29.1;50.17;2601;2018-04-16 22:38:43:867
-2.234;-9.493;-0.008;-2.276;-9.534;0.305;0.042;0.041;-0.313;-0.046;0.046;-0.01;-1.0;-3.3;29.2;50.17;2611;2018-04-16 22:38:43:877
-2.29;-9.519;0.049;-2.276;-9.534;0.305;0.042;0.041;-0.313;-0.046;0.046;-0.01;-1.0;-3.3;29.2;50.17;2621;2018-04-16 22:38:43:887
-2.318;-9.497;0.12;-2.274;-9.535;0.286;-0.027;0.018;-0.215;-0.05;0.079;-0.011;-1.0;-3.3;29.2;50.17;2631;2018-04-16 22:38:43:897
-2.318;-9.497;0.12;-2.274;-9.535;0.286;-0.027;0.018;-0.215;-0.055;0.125;-0.012;-1.0;-3.3;29.2;50.17;2641;2018-04-16 22:38:43:907
-2.333;-9.481;0.154;-2.274;-9.536;0.266;-0.059;0.055;-0.112;-0.051;0.149;-0.013;-1.0;-3.3;29.3;50.17;2651;2018-04-16 22:38:43:917
-2.333;-9.481;0.154;-2.274;-9.536;0.266;-0.059;0.055;-0.112;-0.051;0.149;-0.013;-1.0;-3.3;29.3;50.17;2661;2018-04-16 22:38:43:927
-2.354;-9.448;0.177;-2.273;-9.536;0.249;-0.08;0.089;-0.072;-0.04;0.153;-0.017;-1.1;-3.3;29.4;50.17;2671;2018-04-16 22:38:43:937
-2.354;-9.448;0.177;-2.273;-9.536;0.249;-0.08;0.089;-0.072;-0.026;0.138;-0.013;-1.1;-3.3;29.4;50.17;2681;2018-04-16 22:38:43:947
-2.374;-9.418;0.182;-2.273;-9.537;0.237;-0.101;0.119;-0.055;-0.004;0.109;-0.007;-1.1;-3.3;29.4;50.17;2692;2018-04-16 22:38:43:958
-2.374;-9.418;0.182;-2.273;-9.537;0.237;-0.101;0.119;-0.055;-0.004;0.109;-0.007;-1.1;-3.3;29.4;50.17;2702;2018-04-16 22:38:43:968
-2.354;-9.458;0.114;-2.274;-9.537;0.231;-0.08;0.078;-0.117;0.005;0.073;-0.007;-1.2;-3.3;29.3;50.17;2712;2018-04-16 22:38:43:978
-2.354;-9.458;0.114;-2.274;-9.537;0.231;-0.08;0.078;-0.117;0.02;0.013;-0.002;-1.2;-3.3;29.3;50.17;2722;2018-04-16 22:38:43:988
-2.325;-9.506;0.066;-2.275;-9.536;0.23;-0.05;0.03;-0.165;0.02;-0.006;0.0;-1.2;-3.3;29.3;50.17;2732;2018-04-16 22:38:43:998
-2.325;-9.506;0.066;-2.275;-9.536;0.23;-0.05;0.03;-0.165;0.012;-0.05;0.006;-1.2;-3.3;29.3;50.17;2742;2018-04-16 22:38:44:008
-2.278;-9.479;0.042;-2.276;-9.536;0.231;-0.002;0.057;-0.189;0.001;-0.079;0.007;-1.3;-3.3;29.3;50.17;2751;2018-04-16 22:38:44:017
-2.278;-9.479;0.042;-2.276;-9.536;0.231;-0.002;0.057;-0.189;0.001;-0.079;0.007;-1.3;-3.3;29.3;50.17;2761;2018-04-16 22:38:44:027
-2.234;-9.442;0.043;-2.276;-9.536;0.229;0.042;0.095;-0.186;-0.01;-0.095;0.006;-1.3;-3.3;29.3;50.17;2771;2018-04-16 22:38:44:037
-2.234;-9.442;0.043;-2.276;-9.536;0.229;0.042;0.095;-0.186;-0.015;-0.095;0.005;-1.3;-3.3;29.3;50.17;2782;2018-04-16 22:38:44:048
-2.234;-9.461;0.062;-2.275;-9.536;0.227;0.042;0.076;-0.165;-0.016;-0.079;0.0;-1.2;-3.3;29.3;50.17;2792;2018-04-16 22:38:44:058
-2.234;-9.461;0.062;-2.275;-9.536;0.227;0.042;0.076;-0.165;-0.016;-0.079;0.0;-1.2;-3.3;29.3;50.17;2802;2018-04-16 22:38:44:068
-2.257;-9.457;0.12;-2.275;-9.537;0.224;0.018;0.079;-0.105;-0.015;-0.054;-0.002;-1.2;-3.3;29.2;50.17;2812;2018-04-16 22:38:44:078
-2.257;-9.457;0.12;-2.275;-9.537;0.224;0.018;0.079;-0.105;-0.015;-0.054;-0.002;-1.2;-3.3;29.2;50.17;2822;2018-04-16 22:38:44:088
-2.319;-9.455;0.14;-2.274;-9.537;0.219;-0.045;0.082;-0.079;-0.018;0.023;-0.01;-1.2;-3.2;29.2;50.17;2832;2018-04-16 22:38:44:098
-2.319;-9.455;0.14;-2.274;-9.537;0.219;-0.045;0.082;-0.079;-0.017;0.071;-0.009;-1.2;-3.2;29.2;50.17;2841;2018-04-16 22:38:44:107
-2.377;-9.476;0.128;-2.275;-9.537;0.211;-0.102;0.06;-0.082;-0.017;0.071;-0.009;-1.2;-3.2;29.2;50.17;2851;2018-04-16 22:38:44:117
-2.377;-9.476;0.128;-2.275;-9.537;0.211;-0.102;0.06;-0.082;-0.005;0.088;-0.006;-1.2;-3.2;29.2;50.17;2861;2018-04-16 22:38:44:127
-2.397;-9.463;0.079;-2.277;-9.536;0.204;-0.12;0.073;-0.125;0.004;0.073;-0.007;-1.2;-3.2;29.1;50.17;2871;2018-04-16 22:38:44:137
-2.397;-9.463;0.079;-2.277;-9.536;0.204;-0.12;0.073;-0.125;0.009;0.057;-0.006;-1.2;-3.2;29.1;50.17;2882;2018-04-16 22:38:44:148
-2.413;-9.455;0.051;-2.279;-9.536;0.2;-0.135;0.081;-0.149;0.0;0.022;-0.002;-1.2;-3.2;29.1;50.17;2892;2018-04-16 22:38:44:158
-2.413;-9.455;0.051;-2.279;-9.536;0.2;-0.135;0.081;-0.149;-0.011;0.015;0.004;-1.2;-3.2;29.1;50.17;2902;2018-04-16 22:38:44:168
-2.361;-9.432;0.097;-2.281;-9.536;0.196;-0.079;0.104;-0.099;-0.02;0.013;0.006;-1.2;-3.2;29.0;50.17;2912;2018-04-16 22:38:44:178
-2.344;-9.457;0.101;-2.281;-9.536;0.196;-0.079;0.104;-0.099;-0.02;0.013;0.006;-1.2;-3.2;29.0;49.25;2922;2018-04-16 22:38:44:188
-2.344;-9.457;0.101;-2.284;-9.535;0.188;-0.06;0.078;-0.088;-0.028;0.005;0.009;-1.2;-3.3;28.9;49.25;2932;2018-04-16 22:38:44:198
-2.3;-9.483;0.097;-2.284;-9.535;0.188;-0.06;0.078;-0.088;-0.026;-0.017;0.01;-1.2;-3.3;28.9;49.25;2942;2018-04-16 22:38:44:208
-2.289;-9.48;0.087;-2.286;-9.535;0.182;-0.01;0.044;-0.097;-0.016;-0.038;0.006;-1.2;-3.3;28.9;49.25;2951;2018-04-16 22:38:44:217
-2.289;-9.48;0.087;-2.286;-9.535;0.182;-0.01;0.044;-0.097;-0.016;-0.038;0.006;-1.2;-3.3;28.9;49.25;2962;2018-04-16 22:38:44:228
-2.267;-9.455;0.093;-2.287;-9.535;0.182;0.019;0.08;-0.088;0.001;-0.057;0.002;-1.2;-3.3;29.0;49.25;2972;2018-04-16 22:38:44:238
-2.267;-9.455;0.093;-2.287;-9.535;0.182;0.019;0.08;-0.088;0.001;-0.057;0.002;-1.2;-3.3;29.0;49.25;2982;2018-04-16 22:38:44:248
-2.284;-9.476;0.099;-2.286;-9.535;0.182;0.002;0.059;-0.083;-0.001;-0.042;-0.005;-1.2;-3.3;29.0;49.25;2992;2018-04-16 22:38:44:258
-2.315;-9.481;0.065;-2.285;-9.535;0.179;-0.031;0.054;-0.114;-0.009;-0.009;-0.01;-1.2;-3.3;29.0;49.25;3002;2018-04-16 22:38:44:268
-2.315;-9.481;0.065;-2.285;-9.535;0.179;-0.031;0.054;-0.114;-0.01;0.002;-0.01;-1.2;-3.3;29.0;49.25;3012;2018-04-16 22:38:44:278
-2.315;-9.481;0.065;-2.285;-9.535;0.179;-0.031;0.054;-0.114;-0.01;0.002;-0.01;-1.2;-3.3;29.0;49.25;3022;2018-04-16 22:38:44:288
-2.29;-9.471;0.073;-2.283;-9.536;0.175;-0.007;0.064;-0.101;-0.006;0.023;-0.011;-1.2;-3.3;28.9;49.25;3036;2018-04-16 22:38:44:302
-2.29;-9.471;0.073;-2.283;-9.536;0.175;-0.007;0.064;-0.101;-0.006;0.023;-0.011;-1.2;-3.3;28.9;49.25;3042;2018-04-16 22:38:44:308
-2.29;-9.471;0.073;-2.283;-9.536;0.175;-0.007;0.064;-0.101;-0.006;0.023;-0.011;-1.2;-3.3;28.9;49.25;3052;2018-04-16 22:38:44:318
-2.269;-9.479;0.065;-2.281;-9.536;0.169;0.012;0.058;-0.105;-0.009;0.034;-0.013;-1.2;-3.3;29.0;49.25;3062;2018-04-16 22:38:44:328
-2.269;-9.479;0.065;-2.281;-9.536;0.169;0.012;0.058;-0.105;-0.009;0.034;-0.013;-1.2;-3.3;29.0;49.25;3072;2018-04-16 22:38:44:338
-2.278;-9.503;0.045;-2.277;-9.537;0.158;-0.001;0.035;-0.112;-0.022;0.054;-0.016;-1.2;-3.4;29.1;49.25;3082;2018-04-16 22:38:44:348
-2.312;-9.529;0.043;-2.275;-9.538;0.15;-0.001;0.035;-0.112;-0.022;0.035;-0.017;-1.2;-3.4;29.1;49.25;3092;2018-04-16 22:38:44:358
-2.312;-9.529;0.043;-2.275;-9.538;0.15;-0.037;0.009;-0.106;-0.022;0.035;-0.017;-1.2;-3.4;29.1;49.25;3102;2018-04-16 22:38:44:368
-2.312;-9.529;0.043;-2.275;-9.538;0.15;-0.037;0.009;-0.106;-0.017;0.017;-0.017;-1.2;-3.4;29.1;49.25;3112;2018-04-16 22:38:44:378
-2.304;-9.471;0.032;-2.272;-9.539;0.145;-0.032;0.067;-0.112;-0.011;-0.002;-0.013;-1.3;-3.4;29.1;49.25;3122;2018-04-16 22:38:44:388
-2.304;-9.471;0.032;-2.272;-9.539;0.145;-0.032;0.067;-0.112;-0.015;-0.02;-0.011;-1.3;-3.4;29.1;49.25;3132;2018-04-16 22:38:44:398
-2.289;-9.433;0.043;-2.271;-9.539;0.141;-0.018;0.106;-0.098;-0.012;-0.032;-0.012;-1.3;-3.4;29.1;49.25;3142;2018-04-16 22:38:44:408
-2.289;-9.433;0.043;-2.271;-9.539;0.141;-0.018;0.106;-0.098;-0.012;-0.032;-0.012;-1.3;-3.4;29.1;49.25;3151;2018-04-16 22:38:44:417
-2.303;-9.446;0.043;-2.269;-9.54;0.137;-0.034;0.093;-0.094;-0.023;-0.022;-0.015;-1.3;-3.4;29.2;49.25;3162;2018-04-16 22:38:44:428
-2.303;-9.446;0.043;-2.269;-9.54;0.137;-0.034;0.093;-0.094;-0.023;-0.022;-0.015;-1.3;-3.4;29.2;49.25;3172;2018-04-16 22:38:44:438
-2.297;-9.465;0.043;-2.267;-9.54;0.13;-0.03;0.075;-0.087;-0.033;-0.001;-0.013;-1.3;-3.4;29.3;49.25;3181;2018-04-16 22:38:44:447
-2.312;-9.494;0.043;-2.265;-9.541;0.122;-0.046;0.046;-0.079;-0.029;0.009;-0.012;-1.3;-3.4;29.4;49.25;3191;2018-04-16 22:38:44:457
-2.312;-9.494;0.043;-2.265;-9.541;0.122;-0.046;0.046;-0.079;-0.029;0.016;-0.013;-1.3;-3.4;29.4;49.25;3202;2018-04-16 22:38:44:468
-2.33;-9.456;0.057;-2.264;-9.541;0.114;-0.065;0.085;-0.056;-0.031;0.022;-0.012;-1.3;-3.4;29.5;49.25;3212;2018-04-16 22:38:44:478
-2.33;-9.456;0.057;-2.264;-9.541;0.114;-0.065;0.085;-0.056;-0.031;0.022;-0.012;-1.3;-3.4;29.5;49.25;3221;2018-04-16 22:38:44:487
-2.338;-9.4;0.067;-2.264;-9.541;0.105;-0.074;0.142;-0.038;-0.035;0.028;-0.012;-1.3;-3.4;29.6;49.25;3232;2018-04-16 22:38:44:498
-2.338;-9.4;0.067;-2.264;-9.541;0.105;-0.074;0.142;-0.038;-0.038;0.029;-0.01;-1.3;-3.4;29.6;49.42;3242;2018-04-16 22:38:44:508
-2.338;-9.454;0.045;-2.264;-9.541;0.097;-0.067;0.088;-0.051;-0.027;0.013;-0.006;-1.3;-3.4;29.5;49.42;3252;2018-04-16 22:38:44:518
-2.326;-9.474;0.043;-2.264;-9.541;0.095;-0.062;0.067;-0.052;-0.013;-0.007;-0.007;-1.3;-3.4;29.5;49.42;3262;2018-04-16 22:38:44:528
-2.326;-9.474;0.043;-2.264;-9.541;0.095;-0.062;0.067;-0.052;-0.013;-0.007;-0.007;-1.3;-3.4;29.5;49.42;3272;2018-04-16 22:38:44:538
-2.322;-9.481;0.043;-2.263;-9.541;0.095;-0.059;0.06;-0.052;-0.004;-0.024;-0.009;-1.3;-3.4;29.5;49.42;3282;2018-04-16 22:38:44:548
-2.322;-9.481;0.043;-2.263;-9.541;0.095;-0.059;0.06;-0.052;-0.004;-0.024;-0.009;-1.3;-3.4;29.5;49.42;3292;2018-04-16 22:38:44:558
-2.32;-9.467;0.042;-2.263;-9.542;0.094;-0.057;0.075;-0.053;-0.006;-0.024;-0.009;-1.3;-3.4;29.4;49.42;3301;2018-04-16 22:38:44:567
-2.321;-9.489;0.042;-2.262;-9.542;0.091;-0.059;0.052;-0.049;-0.012;-0.01;-0.01;-1.2;-3.4;29.4;49.42;3312;2018-04-16 22:38:44:578
-2.321;-9.489;0.042;-2.262;-9.542;0.091;-0.059;0.052;-0.049;-0.026;0.009;-0.007;-1.2;-3.4;29.4;49.42;3322;2018-04-16 22:38:44:588
-2.32;-9.47;0.041;-2.262;-9.542;0.088;-0.058;0.072;-0.047;-0.021;0.018;-0.007;-1.2;-3.4;29.6;49.42;3332;2018-04-16 22:38:44:598
-2.32;-9.47;0.041;-2.262;-9.542;0.088;-0.058;0.072;-0.047;-0.021;0.018;-0.007;-1.2;-3.4;29.6;49.42;3341;2018-04-16 22:38:44:607
-2.312;-9.482;0.004;-2.261;-9.542;0.083;-0.05;0.06;-0.079;-0.01;0.017;-0.007;-1.2;-3.4;29.5;49.42;3352;2018-04-16 22:38:44:618
-2.285;-9.47;-0.004;-2.261;-9.542;0.08;-0.032;0.093;-0.081;-0.005;0.017;-0.009;-1.2;-3.3;29.5;49.42;3362;2018-04-16 22:38:44:628
-2.29;-9.454;-0.004;-2.261;-9.542;0.08;-0.032;0.093;-0.081;-0.002;0.017;-0.012;-1.2;-3.3;29.5;49.42;3372;2018-04-16 22:38:44:638
-2.283;-9.463;0.002;-2.26;-9.542;0.078;-0.023;0.079;-0.076;-0.002;0.021;-0.012;-1.2;-3.3;29.5;49.42;3382;2018-04-16 22:38:44:648
-2.292;-9.442;0.043;-2.258;-9.543;0.072;-0.034;0.101;-0.029;-0.024;0.051;-0.011;-1.2;-3.3;29.4;49.42;3392;2018-04-16 22:38:44:658
-2.292;-9.442;0.043;-2.258;-9.543;0.072;-0.034;0.101;-0.029;-0.042;0.076;-0.011;-1.2;-3.3;29.4;49.42;3402;2018-04-16 22:38:44:668
-2.336;-9.407;0.072;-2.258;-9.543;0.06;-0.078;0.136;0.012;-0.042;0.076;-0.011;-1.2;-3.4;29.5;49.42;3412;2018-04-16 22:38:44:678
-2.336;-9.407;0.072;-2.258;-9.543;0.06;-0.078;0.136;0.012;-0.045;0.095;-0.011;-1.2;-3.4;29.5;49.42;3422;2018-04-16 22:38:44:688
-2.338;-9.401;0.079;-2.258;-9.543;0.053;-0.08;0.142;0.026;-0.045;0.092;-0.007;-1.2;-3.3;29.5;49.42;3432;2018-04-16 22:38:44:698
-2.338;-9.401;0.079;-2.258;-9.543;0.053;-0.08;0.142;0.026;-0.045;0.092;-0.007;-1.2;-3.3;29.5;49.42;3442;2018-04-16 22:38:44:708
-2.321;-9.433;0.08;-2.258;-9.543;0.046;-0.063;0.11;0.034;-0.02;0.046;-0.005;-1.2;-3.4;29.5;49.42;3452;2018-04-16 22:38:44:718
-2.321;-9.433;0.08;-2.258;-9.543;0.046;-0.063;0.11;0.034;-0.02;0.046;-0.005;-1.2;-3.4;29.5;49.42;3463;2018-04-16 22:38:44:729
-2.331;-9.458;0.083;-2.259;-9.543;0.045;-0.072;0.085;0.037;0.0;-0.004;-0.005;-1.2;-3.4;29.4;49.42;3473;2018-04-16 22:38:44:739
-2.331;-9.458;0.083;-2.259;-9.543;0.045;-0.072;0.085;0.037;0.0;-0.004;-0.005;-1.2;-3.4;29.4;49.42;3482;2018-04-16 22:38:44:748
-2.328;-9.454;0.056;-2.26;-9.543;0.047;-0.069;0.089;0.009;0.0;-0.028;-0.001;-1.2;-3.5;29.3;49.42;3492;2018-04-16 22:38:44:758
-2.328;-9.454;0.056;-2.26;-9.543;0.047;-0.069;0.089;0.009;0.006;-0.065;0.001;-1.2;-3.5;29.3;49.42;3502;2018-04-16 22:38:44:768
-2.331;-9.446;0.043;-2.261;-9.542;0.052;-0.07;0.096;-0.008;0.016;-0.076;0.002;-1.2;-3.5;29.3;49.42;3512;2018-04-16 22:38:44:778
-2.331;-9.446;0.043;-2.261;-9.542;0.052;-0.07;0.096;-0.008;0.016;-0.076;0.002;-1.2;-3.5;29.3;49.42;3522;2018-04-16 22:38:44:788
-2.283;-9.477;0.034;-2.262;-9.542;0.058;-0.021;0.064;-0.024;0.021;-0.072;0.002;-1.3;-3.5;29.1;49.42;3532;2018-04-16 22:38:44:798
-2.283;-9.477;0.034;-2.262;-9.542;0.058;-0.021;0.064;-0.024;0.021;-0.072;0.002;-1.3;-3.5;29.1;49.42;3542;2018-04-16 22:38:44:808
-2.234;-9.463;0.023;-2.262;-9.542;0.062;0.028;0.079;-0.039;0.01;-0.032;-0.004;-1.3;-3.5;29.1;49.42;3552;2018-04-16 22:38:44:818
-2.23;-9.493;0.004;-2.262;-9.542;0.062;0.028;0.079;-0.039;-0.002;0.013;-0.01;-1.3;-3.5;29.1;49.42;3562;2018-04-16 22:38:44:828
-2.23;-9.493;0.004;-2.26;-9.542;0.06;0.007;0.049;-0.055;-0.002;0.013;-0.01;-1.3;-3.4;29.0;49.42;3572;2018-04-16 22:38:44:838
-2.28;-9.506;0.004;-2.26;-9.542;0.06;0.007;0.049;-0.055;-0.005;0.049;-0.01;-1.3;-3.4;29.0;49.79;3582;2018-04-16 22:38:44:848
-2.339;-9.473;0.0;-2.259;-9.543;0.055;-0.068;0.049;-0.049;-0.01;0.064;-0.012;-1.3;-3.5;29.1;49.79;3592;2018-04-16 22:38:44:858
-2.339;-9.473;0.0;-2.259;-9.543;0.055;-0.068;0.049;-0.049;-0.009;0.077;-0.013;-1.3;-3.5;29.1;49.79;3602;2018-04-16 22:38:44:868
-2.352;-9.444;0.013;-2.258;-9.543;0.049;-0.095;0.099;-0.036;-0.01;0.079;-0.013;-1.3;-3.4;29.2;49.79;3612;2018-04-16 22:38:44:878
-2.333;-9.439;0.019;-2.258;-9.543;0.049;-0.095;0.099;-0.036;-0.011;0.081;-0.01;-1.3;-3.4;29.2;49.79;3622;2018-04-16 22:38:44:888
-2.333;-9.439;0.019;-2.257;-9.543;0.043;-0.051;0.104;-0.023;-0.011;0.081;-0.009;-1.4;-3.4;29.1;49.79;3633;2018-04-16 22:38:44:899
-2.303;-9.443;0.016;-2.257;-9.543;0.043;-0.051;0.104;-0.023;-0.016;0.077;-0.006;-1.4;-3.4;29.1;49.79;3642;2018-04-16 22:38:44:908
-2.27;-9.456;0.03;-2.257;-9.543;0.036;-0.023;0.083;-0.005;-0.02;0.064;-0.005;-1.5;-3.5;29.1;49.79;3652;2018-04-16 22:38:44:918
-2.27;-9.456;0.03;-2.257;-9.543;0.036;-0.023;0.083;-0.005;-0.02;0.064;-0.005;-1.5;-3.5;29.1;49.79;3662;2018-04-16 22:38:44:928
-2.27;-9.456;0.03;-2.256;-9.544;0.03;0.005;0.072;0.014;-0.022;0.048;-0.005;-1.5;-3.5;29.1;49.79;3672;2018-04-16 22:38:44:938
-2.267;-9.464;0.029;-2.256;-9.544;0.03;0.005;0.072;0.014;-0.022;0.048;-0.005;-1.5;-3.5;29.1;49.79;3682;2018-04-16 22:38:44:948
-2.284;-9.474;0.035;-2.255;-9.544;0.026;-0.029;0.07;0.009;-0.01;0.002;-0.006;-1.5;-3.5;29.2;49.79;3692;2018-04-16 22:38:44:958
-2.284;-9.474;0.035;-2.255;-9.544;0.026;-0.029;0.07;0.009;-0.01;0.002;-0.006;-1.5;-3.5;29.2;49.79;3703;2018-04-16 22:38:44:969
-2.302;-9.45;0.028;-2.255;-9.544;0.028;-0.047;0.094;0.0;0.0;-0.046;-0.004;-1.5;-3.5;29.1;49.79;3712;2018-04-16 22:38:44:978
-2.294;-9.437;0.041;-2.255;-9.544;0.028;-0.047;0.094;0.0;0.0;-0.053;-0.002;-1.5;-3.5;29.1;49.79;3722;2018-04-16 22:38:44:988
-2.294;-9.437;0.041;-2.256;-9.544;0.03;-0.049;0.101;0.012;-0.007;-0.05;-0.001;-1.5;-3.5;29.1;49.79;3732;2018-04-16 22:38:44:998
-2.306;-9.457;0.042;-2.256;-9.544;0.03;-0.049;0.101;0.012;-0.007;-0.05;-0.001;-1.5;-3.5;29.1;49.79;3743;2018-04-16 22:38:45:009
-2.306;-9.457;0.042;-2.257;-9.543;0.03;-0.043;0.083;0.009;-0.007;-0.032;0.0;-1.5;-3.4;29.2;49.79;3752;2018-04-16 22:38:45:018
-2.297;-9.473;0.043;-2.257;-9.543;0.03;-0.043;0.083;0.009;-0.01;-0.021;0.0;-1.5;-3.4;29.2;49.79;3762;2018-04-16 22:38:45:028
-2.29;-9.463;0.043;-2.257;-9.543;0.029;-0.038;0.079;0.014;-0.005;-0.007;0.0;-1.5;-3.4;29.2;49.79;3772;2018-04-16 22:38:45:038
-2.29;-9.463;0.043;-2.257;-9.543;0.029;-0.038;0.079;0.014;0.001;0.011;-0.006;-1.5;-3.4;29.2;49.79;3782;2018-04-16 22:38:45:048
-2.328;-9.499;0.043;-2.257;-9.543;0.029;-0.071;0.044;0.014;0.001;0.011;-0.006;-1.5;-3.3;29.3;49.79;3792;2018-04-16 22:38:45:058
-2.319;-9.492;0.043;-2.257;-9.543;0.029;-0.062;0.052;0.014;0.009;0.034;-0.009;-1.5;-3.3;29.3;49.79;3802;2018-04-16 22:38:45:068
-2.319;-9.492;0.043;-2.257;-9.543;0.029;-0.062;0.052;0.014;0.009;0.034;-0.009;-1.5;-3.3;29.3;49.79;3812;2018-04-16 22:38:45:078
-2.289;-9.44;0.043;-2.256;-9.544;0.028;-0.033;0.103;0.015;0.006;0.06;-0.011;-1.5;-3.2;29.5;49.79;3823;2018-04-16 22:38:45:089
-2.269;-9.443;0.026;-2.255;-9.544;0.025;-0.014;0.101;0.001;-0.001;0.066;-0.01;-1.4;-3.2;29.6;49.79;3833;2018-04-16 22:38:45:099
-2.269;-9.443;0.026;-2.255;-9.544;0.025;-0.014;0.101;0.001;-0.006;0.064;-0.015;-1.4;-3.2;29.6;49.79;3842;2018-04-16 22:38:45:108
-2.269;-9.443;0.026;-2.255;-9.544;0.025;-0.014;0.101;0.001;-0.006;0.064;-0.015;-1.4;-3.2;29.6;49.79;3852;2018-04-16 22:38:45:118
-2.297;-9.481;0.024;-2.252;-9.544;0.021;-0.045;0.063;0.003;-0.006;0.05;-0.013;-1.4;-3.1;29.5;49.79;3863;2018-04-16 22:38:45:129
-2.318;-9.51;0.018;-2.251;-9.545;0.021;-0.066;0.035;-0.003;0.011;0.005;-0.006;-1.4;-3.1;29.6;49.79;3872;2018-04-16 22:38:45:138
-2.318;-9.51;0.018;-2.251;-9.545;0.021;-0.066;0.035;-0.003;0.011;0.005;-0.006;-1.4;-3.1;29.6;49.79;3882;2018-04-16 22:38:45:148
-2.313;-9.516;0.016;-2.252;-9.545;0.023;-0.061;0.029;-0.007;0.013;-0.018;0.0;-1.4;-3.1;29.5;49.79;3892;2018-04-16 22:38:45:158
-2.318;-9.463;0.016;-2.253;-9.544;0.027;-0.065;0.081;-0.011;0.016;-0.043;0.002;-1.4;-3.1;29.5;48.91;3902;2018-04-16 22:38:45:168
-2.318;-9.463;0.016;-2.253;-9.544;0.027;-0.065;0.081;-0.011;0.01;-0.049;0.005;-1.4;-3.1;29.5;48.91;3912;2018-04-16 22:38:45:178
-2.296;-9.396;0.035;-2.253;-9.544;0.027;-0.065;0.081;-0.011;0.01;-0.049;0.005;-1.4;-3.1;29.5;48.91;3922;2018-04-16 22:38:45:188
-2.296;-9.396;0.035;-2.255;-9.544;0.03;-0.034;0.145;0.013;0.006;-0.046;0.004;-1.4;-3.0;29.5;48.91;3932;2018-04-16 22:38:45:198
-2.3;-9.424;0.043;-2.255;-9.544;0.03;-0.034;0.145;0.013;0.006;-0.046;0.004;-1.4;-3.0;29.5;48.91;3942;2018-04-16 22:38:45:208
-2.266;-9.468;0.053;-2.255;-9.544;0.032;-0.026;0.095;0.011;0.0;-0.031;0.0;-1.4;-2.9;29.5;48.91;3952;2018-04-16 22:38:45:218
-2.266;-9.468;0.053;-2.255;-9.544;0.032;-0.026;0.095;0.011;0.0;-0.031;0.0;-1.4;-2.9;29.5;48.91;3962;2018-04-16 22:38:45:228
-2.27;-9.481;0.056;-2.256;-9.544;0.034;-0.014;0.087;0.032;0.01;-0.01;-0.004;-1.4;-2.9;29.4;48.91;3972;2018-04-16 22:38:45:238
-2.27;-9.481;0.056;-2.256;-9.544;0.034;-0.014;0.087;0.032;0.011;0.011;-0.006;-1.4;-2.9;29.4;48.91;3981;2018-04-16 22:38:45:247
-2.271;-9.491;0.043;-2.255;-9.544;0.036;-0.016;0.053;0.007;0.011;0.011;-0.006;-1.4;-2.9;29.3;48.91;3991;2018-04-16 22:38:45:257
-2.271;-9.491;0.043;-2.255;-9.544;0.036;-0.016;0.053;0.007;0.012;0.015;-0.006;-1.4;-2.9;29.3;48.91;4002;2018-04-16 22:38:45:268
-2.279;-9.489;0.028;-2.254;-9.544;0.038;-0.025;0.055;-0.011;0.017;0.004;-0.009;-1.4;-2.8;29.3;48.91;4012;2018-04-16 22:38:45:278
-2.282;-9.491;0.007;-2.254;-9.544;0.038;-0.025;0.055;-0.011;0.021;-0.018;-0.009;-1.4;-2.8;29.3;48.91;4022;2018-04-16 22:38:45:288
-2.282;-9.491;0.007;-2.253;-9.544;0.043;-0.033;0.051;-0.037;0.021;-0.024;-0.007;-1.4;-2.8;29.3;48.91;4031;2018-04-16 22:38:45:297
-2.286;-9.493;0.013;-2.253;-9.544;0.043;-0.033;0.051;-0.037;0.021;-0.024;-0.007;-1.4;-2.8;29.3;48.91;4042;2018-04-16 22:38:45:308
-2.286;-9.493;0.013;-2.251;-9.545;0.046;-0.046;0.065;-0.021;0.01;-0.038;-0.009;-1.5;-2.8;29.2;48.91;4052;2018-04-16 22:38:45:318
-2.308;-9.462;0.026;-2.251;-9.545;0.046;-0.046;0.065;-0.021;0.001;-0.035;-0.01;-1.5;-2.8;29.2;48.91;4062;2018-04-16 22:38:45:328
-2.328;-9.458;0.038;-2.251;-9.545;0.048;-0.074;0.088;-0.013;-0.001;-0.034;-0.009;-1.5;-2.8;29.3;48.91;4072;2018-04-16 22:38:45:338
-2.328;-9.458;0.038;-2.251;-9.545;0.048;-0.074;0.088;-0.013;0.001;-0.033;-0.01;-1.5;-2.8;29.3;48.91;4082;2018-04-16 22:38:45:348
-2.349;-9.468;0.043;-2.25;-9.545;0.049;-0.099;0.077;-0.006;0.009;-0.028;-0.011;-1.5;-2.8;29.2;48.91;4092;2018-04-16 22:38:45:358
-2.349;-9.468;0.043;-2.25;-9.545;0.049;-0.099;0.077;-0.006;0.009;-0.028;-0.011;-1.5;-2.8;29.2;48.91;4102;2018-04-16 22:38:45:368
-2.338;-9.446;0.08;-2.249;-9.545;0.051;-0.089;0.099;0.029;0.005;-0.002;-0.01;-1.5;-2.8;29.2;48.91;4112;2018-04-16 22:38:45:378
-2.338;-9.446;0.08;-2.249;-9.545;0.051;-0.089;0.099;0.029;0.001;0.017;-0.009;-1.5;-2.8;29.2;48.91;4122;2018-04-16 22:38:45:388
-2.285;-9.42;0.061;-2.248;-9.545;0.049;-0.037;0.125;0.012;-0.004;0.035;-0.01;-1.5;-2.8;29.2;48.91;4132;2018-04-16 22:38:45:398
-2.285;-9.42;0.061;-2.248;-9.545;0.049;-0.037;0.125;0.012;-0.006;0.035;-0.007;-1.5;-2.8;29.2;48.91;4142;2018-04-16 22:38:45:408
-2.29;-9.468;0.043;-2.247;-9.546;0.047;-0.043;0.078;-0.004;-0.001;0.027;-0.007;-1.5;-2.8;29.2;48.91;4152;2018-04-16 22:38:45:418
-2.29;-9.468;0.043;-2.247;-9.546;0.047;-0.043;0.078;-0.004;-0.001;0.027;-0.007;-1.5;-2.8;29.2;48.91;4162;2018-04-16 22:38:45:428
-2.314;-9.492;0.043;-2.247;-9.546;0.049;-0.067;0.054;-0.006;0.015;-0.009;-0.006;-1.5;-2.9;29.3;48.91;4172;2018-04-16 22:38:45:438
-2.337;-9.473;0.045;-2.247;-9.546;0.049;-0.067;0.054;-0.006;0.02;-0.028;-0.009;-1.5;-2.9;29.3;48.91;4182;2018-04-16 22:38:45:448
-2.337;-9.473;0.045;-2.246;-9.546;0.053;-0.111;0.091;-0.01;0.02;-0.028;-0.009;-1.6;-2.9;29.2;48.91;4193;2018-04-16 22:38:45:459
-2.374;-9.457;0.042;-2.246;-9.546;0.053;-0.111;0.091;-0.01;0.017;-0.044;-0.002;-1.6;-2.9;29.2;48.91;4203;2018-04-16 22:38:45:469
-2.382;-9.452;0.043;-2.247;-9.545;0.058;-0.135;0.093;-0.015;0.013;-0.055;-0.002;-1.6;-2.8;29.2;48.91;4213;2018-04-16 22:38:45:479
-2.382;-9.452;0.043;-2.247;-9.545;0.058;-0.135;0.093;-0.015;0.015;-0.061;0.002;-1.6;-2.8;29.2;49.57;4222;2018-04-16 22:38:45:488
-2.357;-9.451;0.065;-2.249;-9.545;0.064;-0.108;0.094;0.001;0.015;-0.061;0.002;-1.6;-2.8;29.3;49.57;4232;2018-04-16 22:38:45:498
-2.357;-9.451;0.065;-2.249;-9.545;0.064;-0.108;0.094;0.001;0.012;-0.05;0.004;-1.6;-2.8;29.4;49.57;4242;2018-04-16 22:38:45:508
-2.302;-9.443;0.074;-2.25;-9.545;0.067;-0.052;0.102;0.007;0.009;-0.022;0.004;-1.6;-2.8;29.4;49.57;4251;2018-04-16 22:38:45:517
-2.295;-9.464;0.043;-2.25;-9.545;0.067;-0.052;0.102;0.007;0.009;-0.009;0.004;-1.6;-2.8;29.4;49.57;4262;2018-04-16 22:38:45:528
-2.295;-9.464;0.043;-2.251;-9.544;0.069;-0.027;0.072;-0.029;0.009;-0.009;0.004;-1.6;-2.8;29.4;49.57;4272;2018-04-16 22:38:45:538
-2.295;-9.482;0.043;-2.251;-9.544;0.069;-0.027;0.072;-0.029;0.02;0.005;-0.001;-1.6;-2.8;29.5;49.57;4282;2018-04-16 22:38:45:548
-2.296;-9.488;0.043;-2.251;-9.544;0.072;-0.045;0.056;-0.029;0.018;0.013;-0.004;-1.6;-2.8;29.5;49.57;4292;2018-04-16 22:38:45:558
-2.296;-9.488;0.043;-2.251;-9.544;0.072;-0.045;0.056;-0.029;0.018;0.013;-0.004;-1.6;-2.8;29.5;49.57;4302;2018-04-16 22:38:45:568
-2.308;-9.476;0.042;-2.251;-9.545;0.072;-0.057;0.068;-0.031;0.007;0.038;-0.005;-1.6;-2.8;29.5;49.57;4313;2018-04-16 22:38:45:579
-2.316;-9.446;0.017;-2.251;-9.544;0.071;-0.065;0.098;-0.054;-0.002;0.038;-0.001;-1.6;-2.8;29.5;49.57;4322;2018-04-16 22:38:45:588
-2.316;-9.446;0.017;-2.251;-9.544;0.071;-0.065;0.098;-0.054;-0.002;0.038;-0.001;-1.6;-2.8;29.5;49.57;4332;2018-04-16 22:38:45:598
-2.316;-9.446;0.017;-2.251;-9.544;0.071;-0.065;0.098;-0.054;-0.002;0.038;-0.001;-1.6;-2.8;29.5;49.57;4343;2018-04-16 22:38:45:609
-2.298;-9.444;0.031;-2.252;-9.544;0.07;-0.047;0.1;-0.039;0.004;0.002;-0.002;-1.6;-2.8;29.5;49.57;4352;2018-04-16 22:38:45:618
-2.298;-9.444;0.031;-2.252;-9.544;0.07;-0.047;0.1;-0.039;0.004;0.002;-0.002;-1.6;-2.7;29.5;49.57;4362;2018-04-16 22:38:45:628
-2.303;-9.457;0.103;-2.252;-9.544;0.072;-0.051;0.087;0.031;0.0;-0.01;-0.001;-1.6;-2.7;29.5;49.57;4372;2018-04-16 22:38:45:638
-2.303;-9.457;0.103;-2.252;-9.544;0.072;-0.051;0.087;0.031;-0.005;0.005;-0.006;-1.6;-2.7;29.5;49.57;4382;2018-04-16 22:38:45:648
-2.327;-9.446;0.116;-2.251;-9.544;0.071;-0.076;0.098;0.045;-0.001;0.01;-0.009;-1.6;-2.7;29.4;49.57;4392;2018-04-16 22:38:45:658
-2.343;-9.451;0.126;-2.251;-9.544;0.071;-0.076;0.098;0.045;0.009;0.011;-0.007;-1.6;-2.7;29.4;49.57;4402;2018-04-16 22:38:45:668
-2.343;-9.451;0.126;-2.251;-9.544;0.072;-0.091;0.093;0.054;0.009;0.011;-0.007;-1.6;-2.7;29.3;49.57;4411;2018-04-16 22:38:45:677
-2.358;-9.42;0.096;-2.251;-9.544;0.075;-0.098;0.108;0.012;0.017;0.007;-0.006;-1.6;-2.6;29.3;49.57;4422;2018-04-16 22:38:45:688
-2.358;-9.42;0.096;-2.251;-9.544;0.075;-0.098;0.108;0.012;0.02;-0.001;-0.007;-1.6;-2.6;29.3;49.57;4432;2018-04-16 22:38:45:698
-2.369;-9.449;0.083;-2.251;-9.544;0.075;-0.098;0.108;0.012;0.02;-0.001;-0.007;-1.6;-2.6;29.3;49.57;4442;2018-04-16 22:38:45:708
-2.369;-9.448;0.061;-2.252;-9.544;0.079;-0.117;0.097;-0.018;0.02;-0.005;-0.006;-1.7;-2.7;29.3;49.57;4452;2018-04-16 22:38:45:718
-2.369;-9.448;0.061;-2.252;-9.544;0.079;-0.117;0.097;-0.018;0.013;-0.013;-0.004;-1.7;-2.7;29.3;49.57;4462;2018-04-16 22:38:45:728
-2.364;-9.446;0.067;-2.252;-9.544;0.082;-0.112;0.098;-0.014;0.013;-0.013;-0.004;-1.7;-2.6;29.2;49.57;4472;2018-04-16 22:38:45:738
-2.338;-9.45;0.063;-2.252;-9.544;0.082;-0.112;0.098;-0.014;0.009;-0.023;-0.001;-1.7;-2.6;29.2;49.57;4482;2018-04-16 22:38:45:748
-2.296;-9.455;0.08;-2.253;-9.544;0.085;-0.069;0.092;0.008;0.013;-0.027;0.002;-1.6;-2.6;29.2;49.57;4492;2018-04-16 22:38:45:758
-2.296;-9.455;0.08;-2.253;-9.544;0.085;-0.069;0.092;0.008;0.013;-0.028;0.002;-1.6;-2.6;29.2;49.57;4502;2018-04-16 22:38:45:768
-2.284;-9.454;0.09;-2.254;-9.544;0.089;-0.03;0.09;0.001;0.017;-0.024;0.0;-1.7;-2.6;29.2;49.57;4512;2018-04-16 22:38:45:778
-2.284;-9.454;0.09;-2.254;-9.544;0.089;-0.03;0.09;0.001;0.021;-0.02;0.0;-1.7;-2.6;29.2;49.57;4522;2018-04-16 22:38:45:788
-2.265;-9.449;0.109;-2.254;-9.544;0.093;-0.011;0.095;0.016;0.022;-0.005;-0.001;-1.6;-2.6;29.2;49.57;4533;2018-04-16 22:38:45:799
-2.265;-9.449;0.109;-2.254;-9.544;0.093;-0.011;0.095;0.016;0.022;-0.005;-0.001;-1.6;-2.6;29.2;50.41;4542;2018-04-16 22:38:45:808
-2.276;-9.493;0.13;-2.253;-9.544;0.096;-0.015;0.065;0.01;0.021;0.017;-0.002;-1.6;-2.6;29.3;50.41;4552;2018-04-16 22:38:45:818
-2.296;-9.465;0.091;-2.253;-9.544;0.096;-0.015;0.065;0.01;0.021;0.05;-0.007;-1.6;-2.6;29.3;50.41;4562;2018-04-16 22:38:45:828
-2.296;-9.465;0.091;-2.253;-9.544;0.098;-0.041;0.058;-0.008;0.023;0.049;-0.007;-1.7;-2.6;29.3;50.41;4572;2018-04-16 22:38:45:838
-2.306;-9.479;0.045;-2.253;-9.544;0.098;-0.041;0.058;-0.008;0.023;0.049;-0.007;-1.7;-2.6;29.3;50.41;4582;2018-04-16 22:38:45:848
-2.328;-9.471;0.048;-2.252;-9.544;0.102;-0.076;0.074;-0.053;0.029;0.026;-0.005;-1.7;-2.6;29.3;50.41;4592;2018-04-16 22:38:45:858
-2.34;-9.463;0.045;-2.252;-9.544;0.104;-0.074;0.089;-0.053;0.029;0.011;-0.004;-1.7;-2.6;29.4;50.41;4602;2018-04-16 22:38:45:868
-2.328;-9.475;0.048;-2.253;-9.544;0.108;-0.075;0.069;-0.06;0.02;-0.011;0.001;-1.7;-2.5;29.5;50.41;4612;2018-04-16 22:38:45:878
-2.328;-9.475;0.048;-2.253;-9.544;0.108;-0.075;0.069;-0.06;0.016;-0.018;0.002;-1.7;-2.5;29.5;50.41;4622;2018-04-16 22:38:45:888
-2.314;-9.475;0.05;-2.254;-9.543;0.11;-0.047;0.065;-0.067;0.016;-0.018;0.002;-1.7;-2.5;29.6;50.41;4632;2018-04-16 22:38:45:898
-2.314;-9.475;0.05;-2.254;-9.543;0.11;-0.047;0.065;-0.067;0.016;-0.018;0.002;-1.7;-2.5;29.6;50.41;4641;2018-04-16 22:38:45:907
-2.274;-9.468;0.065;-2.255;-9.543;0.112;-0.02;0.075;-0.047;0.007;-0.028;0.004;-1.7;-2.6;29.5;50.41;4652;2018-04-16 22:38:45:918
-2.274;-9.468;0.065;-2.255;-9.543;0.112;-0.02;0.075;-0.047;0.01;-0.028;0.002;-1.7;-2.6;29.5;50.41;4661;2018-04-16 22:38:45:927
-2.26;-9.462;0.079;-2.255;-9.543;0.114;-0.005;0.081;-0.035;0.015;-0.024;0.001;-1.7;-2.6;29.5;50.41;4672;2018-04-16 22:38:45:938
-2.252;-9.476;0.084;-2.255;-9.543;0.114;-0.005;0.081;-0.035;0.015;-0.024;0.001;-1.7;-2.6;29.5;50.41;4682;2018-04-16 22:38:45:948
-2.252;-9.476;0.084;-2.256;-9.543;0.117;-0.013;0.069;-0.047;0.011;-0.023;-0.001;-1.8;-2.6;29.7;50.41;4692;2018-04-16 22:38:45:958
-2.298;-9.469;0.086;-2.256;-9.543;0.117;-0.013;0.069;-0.047;0.01;-0.012;-0.002;-1.8;-2.6;29.7;50.41;4702;2018-04-16 22:38:45:968
-2.298;-9.469;0.086;-2.256;-9.543;0.119;-0.074;0.099;-0.042;0.01;-0.012;-0.002;-1.7;-2.6;29.8;50.41;4712;2018-04-16 22:38:45:978
-2.343;-9.444;0.073;-2.256;-9.543;0.119;-0.074;0.099;-0.042;0.005;-0.006;-0.002;-1.7;-2.6;29.8;50.41;4722;2018-04-16 22:38:45:988
-2.343;-9.444;0.073;-2.257;-9.543;0.12;-0.121;0.094;-0.048;0.009;-0.007;-0.001;-1.7;-2.6;29.9;50.41;4732;2018-04-16 22:38:45:998
-2.377;-9.449;0.077;-2.257;-9.543;0.12;-0.121;0.094;-0.048;0.011;-0.011;0.0;-1.7;-2.6;29.9;50.41;4744;2018-04-16 22:38:46:010
-2.368;-9.449;0.09;-2.258;-9.542;0.121;-0.11;0.094;-0.032;0.01;-0.011;0.001;-1.7;-2.5;30.0;50.41;4752;2018-04-16 22:38:46:018
-2.368;-9.449;0.09;-2.258;-9.542;0.121;-0.11;0.094;-0.032;0.011;-0.016;0.005;-1.7;-2.5;30.0;50.41;4762;2018-04-16 22:38:46:028
-2.35;-9.452;0.089;-2.26;-9.542;0.124;-0.09;0.09;-0.035;0.015;-0.018;0.004;-1.7;-2.5;29.9;50.41;4772;2018-04-16 22:38:46:038
-2.35;-9.452;0.089;-2.26;-9.542;0.124;-0.09;0.09;-0.035;0.015;-0.018;0.004;-1.7;-2.5;29.9;50.41;4782;2018-04-16 22:38:46:048
-2.332;-9.479;0.092;-2.262;-9.541;0.127;-0.07;0.063;-0.035;0.017;-0.016;0.005;-1.7;-2.5;29.9;50.41;4792;2018-04-16 22:38:46:058
-2.332;-9.479;0.092;-2.262;-9.541;0.127;-0.07;0.063;-0.035;0.021;-0.011;0.006;-1.7;-2.5;29.9;50.41;4802;2018-04-16 22:38:46:068
-2.285;-9.462;0.105;-2.263;-9.541;0.131;-0.022;0.079;-0.026;0.022;0.0;0.004;-1.7;-2.5;29.9;50.41;4812;2018-04-16 22:38:46:078
-2.285;-9.462;0.105;-2.263;-9.541;0.131;-0.022;0.079;-0.026;0.018;0.026;0.002;-1.7;-2.5;29.9;50.41;4823;2018-04-16 22:38:46:089
-2.252;-9.467;0.136;-2.263;-9.541;0.133;0.012;0.074;0.004;0.015;0.049;0.001;-1.7;-2.5;29.9;50.41;4833;2018-04-16 22:38:46:099
-2.224;-9.479;0.124;-2.263;-9.541;0.132;0.039;0.062;-0.008;0.01;0.064;0.0;-1.7;-2.5;29.8;50.41;4843;2018-04-16 22:38:46:109
-2.242;-9.494;0.089;-2.263;-9.541;0.131;0.021;0.047;-0.043;0.017;0.067;-0.001;-1.7;-2.5;29.8;50.41;4852;2018-04-16 22:38:46:118
-2.242;-9.494;0.089;-2.263;-9.541;0.131;0.021;0.047;-0.043;0.017;0.067;-0.001;-1.7;-2.5;29.8;50.41;4863;2018-04-16 22:38:46:129
-2.246;-9.482;0.077;-2.263;-9.541;0.132;0.017;0.059;-0.055;0.021;0.051;-0.004;-1.7;-2.5;29.8;50.41;4872;2018-04-16 22:38:46:138
-2.246;-9.482;0.077;-2.263;-9.541;0.132;0.017;0.059;-0.055;0.032;0.031;-0.004;-1.7;-2.5;29.8;49.36;4882;2018-04-16 22:38:46:148
-2.274;-9.494;0.071;-2.262;-9.541;0.136;-0.012;0.047;-0.066;0.032;0.031;-0.004;-1.8;-2.4;29.7;49.36;4892;2018-04-16 22:38:46:158
-2.274;-9.494;0.071;-2.262;-9.541;0.136;-0.012;0.047;-0.066;0.029;-0.007;0.001;-1.8;-2.4;29.7;49.36;4902;2018-04-16 22:38:46:168
-2.312;-9.494;0.066;-2.263;-9.541;0.141;-0.048;0.047;-0.075;0.029;-0.007;0.001;-1.8;-2.4;29.7;49.36;4912;2018-04-16 22:38:46:178
-2.278;-9.463;0.067;-2.264;-9.541;0.143;-0.014;0.078;-0.076;0.023;-0.027;0.005;-1.8;-2.4;29.5;49.36;4923;2018-04-16 22:38:46:189
-2.277;-9.448;0.055;-2.266;-9.54;0.148;-0.011;0.093;-0.093;0.024;-0.038;0.007;-1.8;-2.4;29.5;49.36;4932;2018-04-16 22:38:46:198
-2.277;-9.448;0.055;-2.266;-9.54;0.148;-0.011;0.093;-0.093;0.022;-0.043;0.006;-1.8;-2.4;29.5;49.36;4942;2018-04-16 22:38:46:208
-2.289;-9.449;0.048;-2.266;-9.54;0.148;-0.011;0.093;-0.093;0.022;-0.043;0.006;-1.8;-2.4;29.5;49.36;4952;2018-04-16 22:38:46:218
-2.279;-9.436;0.063;-2.267;-9.54;0.153;-0.007;0.105;-0.088;0.022;-0.042;0.009;-1.8;-2.3;29.4;49.36;4962;2018-04-16 22:38:46:228
-2.279;-9.436;0.063;-2.267;-9.54;0.153;-0.007;0.105;-0.088;0.023;-0.031;0.009;-1.8;-2.3;29.4;49.36;4972;2018-04-16 22:38:46:238
-2.26;-9.497;0.09;-2.269;-9.539;0.156;0.009;0.043;-0.067;0.005;-0.006;0.011;-1.7;-2.3;29.4;49.36;4982;2018-04-16 22:38:46:248
-2.217;-9.511;0.069;-2.271;-9.539;0.153;0.054;0.028;-0.084;-0.004;0.013;0.012;-1.8;-2.3;29.3;49.36;4992;2018-04-16 22:38:46:258
-2.217;-9.511;0.069;-2.271;-9.539;0.153;0.054;0.028;-0.084;-0.004;0.013;0.012;-1.8;-2.3;29.3;49.36;5002;2018-04-16 22:38:46:268
-2.217;-9.511;0.069;-2.271;-9.539;0.153;0.054;0.028;-0.084;-0.009;0.037;0.009;-1.8;-2.3;29.2;49.36;5012;2018-04-16 22:38:46:278
-2.223;-9.515;0.084;-2.272;-9.539;0.149;0.049;0.024;-0.065;-0.009;0.037;0.009;-1.8;-2.2;29.2;49.36;5023;2018-04-16 22:38:46:289
-2.237;-9.494;0.091;-2.273;-9.538;0.148;0.035;0.044;-0.057;-0.004;0.034;0.006;-1.8;-2.2;29.1;49.36;5033;2018-04-16 22:38:46:299
-2.23;-9.474;0.096;-2.273;-9.538;0.147;0.043;0.065;-0.051;-0.001;0.031;0.004;-1.8;-2.2;29.0;49.36;5042;2018-04-16 22:38:46:308
-2.245;-9.436;0.123;-2.273;-9.538;0.147;0.043;0.065;-0.051;0.001;0.023;0.002;-1.9;-2.2;29.0;49.36;5052;2018-04-16 22:38:46:318
-2.245;-9.436;0.123;-2.273;-9.538;0.147;0.043;0.065;-0.051;0.001;0.023;0.002;-1.9;-2.2;29.0;49.36;5062;2018-04-16 22:38:46:328
-2.245;-9.448;0.113;-2.274;-9.538;0.145;0.029;0.091;-0.032;0.002;0.018;0.002;-1.9;-2.2;29.1;49.36;5073;2018-04-16 22:38:46:339
-2.245;-9.448;0.113;-2.274;-9.538;0.145;0.029;0.091;-0.032;0.005;-0.002;0.002;-1.9;-2.2;29.1;49.36;5082;2018-04-16 22:38:46:348
-2.282;-9.454;0.074;-2.274;-9.538;0.144;-0.007;0.085;-0.07;0.005;-0.002;0.002;-1.9;-2.2;29.1;49.36;5092;2018-04-16 22:38:46:358
-2.282;-9.454;0.074;-2.274;-9.538;0.144;-0.007;0.085;-0.07;0.005;-0.002;0.002;-1.9;-2.2;29.1;49.36;5102;2018-04-16 22:38:46:368
-2.313;-9.452;0.073;-2.275;-9.538;0.147;-0.038;0.086;-0.074;0.013;-0.039;0.001;-1.9;-2.2;29.1;49.36;5113;2018-04-16 22:38:46:379
-2.322;-9.44;0.098;-2.275;-9.538;0.149;-0.047;0.098;-0.051;0.012;-0.044;0.002;-2.0;-2.2;29.1;49.36;5123;2018-04-16 22:38:46:389
-2.322;-9.44;0.098;-2.275;-9.538;0.149;-0.047;0.098;-0.051;0.012;-0.044;0.002;-2.0;-2.2;29.1;49.36;5132;2018-04-16 22:38:46:398
-2.321;-9.44;0.138;-2.277;-9.538;0.15;-0.044;0.097;-0.013;0.001;-0.024;0.007;-2.0;-2.2;29.1;49.36;5142;2018-04-16 22:38:46:408
-2.321;-9.44;0.138;-2.277;-9.538;0.15;-0.044;0.097;-0.013;-0.007;-0.009;0.007;-2.0;-2.2;29.1;49.36;5152;2018-04-16 22:38:46:418
-2.285;-9.47;0.139;-2.279;-9.537;0.149;-0.007;0.067;-0.01;-0.007;0.001;0.01;-2.0;-2.2;29.1;49.36;5162;2018-04-16 22:38:46:428
-2.285;-9.47;0.139;-2.279;-9.537;0.149;-0.007;0.067;-0.01;-0.007;0.001;0.01;-2.0;-2.2;29.1;49.36;5172;2018-04-16 22:38:46:438
-2.269;-9.48;0.099;-2.28;-9.537;0.149;0.012;0.057;-0.049;0.013;-0.011;0.007;-2.0;-2.2;29.2;49.36;5182;2018-04-16 22:38:46:448
-2.269;-9.48;0.099;-2.28;-9.537;0.149;0.012;0.057;-0.049;0.013;-0.011;0.007;-2.0;-2.2;29.2;49.36;5192;2018-04-16 22:38:46:458
-2.294;-9.438;0.098;-2.282;-9.536;0.151;-0.012;0.098;-0.053;0.012;-0.018;0.006;-2.0;-2.2;29.2;49.34;5203;2018-04-16 22:38:46:469
-2.294;-9.438;0.098;-2.282;-9.536;0.151;-0.012;0.098;-0.053;0.012;-0.02;0.004;-2.0;-2.2;29.2;49.34;5212;2018-04-16 22:38:46:478
-2.314;-9.434;0.075;-2.283;-9.536;0.153;-0.031;0.102;-0.078;0.009;-0.022;0.004;-2.0;-2.2;29.1;49.34;5223;2018-04-16 22:38:46:489
-2.314;-9.434;0.075;-2.283;-9.536;0.153;-0.031;0.102;-0.078;0.009;-0.022;0.004;-2.0;-2.2;29.1;49.34;5232;2018-04-16 22:38:46:498
-2.337;-9.468;0.091;-2.284;-9.536;0.155;-0.052;0.068;-0.064;0.002;-0.023;0.006;-2.0;-2.1;29.2;49.34;5243;2018-04-16 22:38:46:509
-2.337;-9.468;0.091;-2.284;-9.536;0.155;-0.052;0.068;-0.064;0.002;-0.023;0.006;-2.0;-2.1;29.2;49.34;5252;2018-04-16 22:38:46:518
-2.327;-9.469;0.063;-2.287;-9.535;0.155;-0.041;0.066;-0.092;0.002;-0.028;0.009;-2.0;-2.2;29.1;49.34;5262;2018-04-16 22:38:46:528
-2.319;-9.455;0.068;-2.287;-9.535;0.155;-0.041;0.066;-0.092;0.004;-0.038;0.006;-2.0;-2.2;29.1;49.34;5272;2018-04-16 22:38:46:538
-2.319;-9.455;0.068;-2.288;-9.535;0.157;-0.035;0.086;-0.074;0.005;-0.043;0.009;-2.1;-2.2;29.1;49.34;5282;2018-04-16 22:38:46:548
-2.318;-9.439;0.085;-2.288;-9.535;0.157;-0.035;0.086;-0.074;0.005;-0.043;0.009;-2.1;-2.2;29.1;49.34;5292;2018-04-16 22:38:46:558
-2.318;-9.439;0.085;-2.29;-9.534;0.159;0.018;0.132;-0.045;0.001;-0.033;0.009;-2.1;-2.2;29.1;49.34;5302;2018-04-16 22:38:46:568
-2.273;-9.427;0.139;-2.291;-9.534;0.159;0.017;0.107;-0.02;0.0;-0.02;0.005;-2.1;-2.3;29.1;49.34;5312;2018-04-16 22:38:46:578
-2.273;-9.427;0.139;-2.291;-9.534;0.159;0.017;0.107;-0.02;-0.007;0.012;0.002;-2.1;-2.3;29.1;49.34;5322;2018-04-16 22:38:46:588
-2.279;-9.474;0.158;-2.291;-9.534;0.157;0.012;0.06;0.001;-0.007;0.012;0.002;-2.1;-2.3;29.2;49.34;5332;2018-04-16 22:38:46:598
-2.28;-9.494;0.153;-2.291;-9.534;0.156;0.011;0.04;-0.002;-0.005;0.039;0.0;-2.1;-2.2;29.1;49.34;5342;2018-04-16 22:38:46:608
-2.307;-9.487;0.16;-2.291;-9.534;0.152;-0.016;0.047;0.008;-0.005;0.045;-0.002;-2.1;-2.2;29.2;49.34;5352;2018-04-16 22:38:46:618
-2.307;-9.487;0.16;-2.291;-9.534;0.152;-0.016;0.047;0.008;-0.005;0.045;-0.002;-2.1;-2.2;29.2;49.34;5362;2018-04-16 22:38:46:628
-2.307;-9.487;0.16;-2.291;-9.534;0.152;-0.016;0.047;0.008;-0.002;0.037;-0.002;-2.1;-2.2;29.2;49.34;5372;2018-04-16 22:38:46:638
-2.388;-9.462;0.144;-2.292;-9.534;0.151;-0.096;0.072;-0.007;0.001;0.012;0.001;-2.0;-2.1;29.1;49.34;5381;2018-04-16 22:38:46:647
-2.437;-9.458;0.127;-2.292;-9.534;0.151;-0.096;0.072;-0.007;0.001;0.012;0.001;-2.0;-2.1;29.1;49.34;5392;2018-04-16 22:38:46:658
-2.437;-9.458;0.127;-2.294;-9.533;0.153;-0.161;0.109;-0.034;0.012;-0.042;0.004;-2.0;-2.0;29.1;49.34;5402;2018-04-16 22:38:46:668
-2.448;-9.406;0.123;-2.294;-9.533;0.153;-0.161;0.109;-0.034;0.012;-0.042;0.004;-2.0;-2.0;29.1;49.34;5412;2018-04-16 22:38:46:678
-2.448;-9.406;0.123;-2.297;-9.532;0.16;-0.102;0.136;-0.036;0.022;-0.083;0.012;-2.0;-2.0;29.1;49.34;5424;2018-04-16 22:38:46:690
-2.344;-9.392;0.142;-2.297;-9.532;0.16;-0.102;0.136;-0.036;0.021;-0.081;0.013;-2.0;-2.0;29.1;49.34;5432;2018-04-16 22:38:46:698
-2.284;-9.451;0.175;-2.3;-9.532;0.167;0.001;0.083;-0.002;0.015;-0.064;0.012;-2.0;-2.1;29.1;49.34;5441;2018-04-16 22:38:46:707
-2.284;-9.451;0.175;-2.3;-9.532;0.167;0.001;0.083;-0.002;0.015;-0.064;0.012;-2.0;-2.1;29.1;49.34;5452;2018-04-16 22:38:46:718
-2.242;-9.442;0.175;-2.301;-9.531;0.167;0.059;0.09;0.007;-0.009;0.0;0.009;-2.0;-2.0;28.9;49.34;5462;2018-04-16 22:38:46:728
-2.258;-9.467;0.166;-2.301;-9.531;0.165;0.044;0.065;0.002;-0.006;0.038;0.001;-2.1;-2.0;28.8;49.34;5472;2018-04-16 22:38:46:738
-2.258;-9.467;0.166;-2.301;-9.531;0.165;0.044;0.065;0.002;-0.006;0.038;0.001;-2.1;-2.0;28.8;49.34;5482;2018-04-16 22:38:46:748
-2.371;-9.461;0.15;-2.301;-9.532;0.164;-0.071;0.071;-0.014;0.009;0.028;-0.009;-2.0;-2.0;28.8;49.34;5492;2018-04-16 22:38:46:758
-2.371;-9.461;0.15;-2.301;-9.532;0.164;-0.071;0.071;-0.014;0.009;0.028;-0.009;-2.0;-2.0;28.8;49.34;5502;2018-04-16 22:38:46:768
-2.504;-9.469;-0.019;-2.301;-9.531;0.17;-0.203;0.062;-0.189;0.02;0.001;-0.006;-2.0;-2.0;28.9;49.34;5512;2018-04-16 22:38:46:778
-2.504;-9.469;-0.019;-2.301;-9.531;0.17;-0.203;0.062;-0.189;0.087;-0.134;0.0;-2.0;-2.0;28.9;48.94;5522;2018-04-16 22:38:46:788
-2.594;-9.584;-0.194;-2.301;-9.531;0.17;-0.203;0.062;-0.189;0.192;-0.335;0.01;-2.0;-2.0;28.9;48.94;5532;2018-04-16 22:38:46:798
-2.594;-9.584;-0.194;-2.304;-9.529;0.22;-0.303;-0.12;-0.401;0.26;-0.451;0.018;-2.0;-2.0;28.8;48.94;5542;2018-04-16 22:38:46:808
-2.613;-9.761;-0.054;-2.304;-9.529;0.22;-0.303;-0.12;-0.401;0.342;-0.639;0.022;-2.0;-2.0;28.8;48.94;5552;2018-04-16 22:38:46:818
-2.678;-9.789;0.0;-2.307;-9.526;0.309;-0.371;-0.262;-0.309;0.342;-0.639;0.022;-2.0;-1.9;28.9;48.94;5562;2018-04-16 22:38:46:828
-2.678;-9.789;0.0;-2.307;-9.526;0.309;-0.371;-0.262;-0.309;0.21;-0.517;0.034;-2.0;-1.9;28.9;48.94;5572;2018-04-16 22:38:46:838
-2.644;-9.396;0.075;-2.314;-9.523;0.355;-0.33;0.127;-0.28;0.016;-0.275;0.046;-1.9;-1.8;28.9;48.94;5582;2018-04-16 22:38:46:848
-2.586;-9.114;0.254;-2.327;-9.521;0.337;-0.236;0.486;-0.042;-0.115;-0.092;0.053;-1.8;-1.7;28.9;48.94;5592;2018-04-16 22:38:46:858
-2.586;-9.114;0.254;-2.327;-9.521;0.337;-0.236;0.486;-0.042;-0.115;-0.092;0.053;-1.8;-1.7;28.9;48.94;5602;2018-04-16 22:38:46:868
-2.534;-9.068;0.338;-2.334;-9.52;0.313;-0.201;0.452;0.025;-0.23;0.108;0.059;-1.8;-1.7;29.0;48.94;5613;2018-04-16 22:38:46:879
-2.345;-9.249;0.401;-2.334;-9.52;0.313;-0.201;0.452;0.025;-0.177;0.103;0.057;-1.8;-1.7;29.0;48.94;5623;2018-04-16 22:38:46:889
-2.345;-9.249;0.401;-2.346;-9.518;0.275;0.079;0.222;0.143;-0.177;0.103;0.057;-1.8;-1.7;28.9;48.94;5632;2018-04-16 22:38:46:898
-2.166;-9.391;0.462;-2.346;-9.518;0.275;0.079;0.222;0.143;-0.121;0.087;0.035;-1.8;-1.7;28.9;48.94;5642;2018-04-16 22:38:46:908
-2.166;-9.391;0.462;-2.348;-9.518;0.245;0.189;0.054;0.218;-0.143;0.15;0.002;-1.7;-1.7;28.8;48.94;5651;2018-04-16 22:38:46:917
-2.144;-9.437;0.441;-2.344;-9.52;0.222;0.222;0.109;0.204;-0.133;0.156;-0.01;-1.7;-1.7;28.9;48.94;5662;2018-04-16 22:38:46:928
-2.144;-9.437;0.441;-2.344;-9.52;0.222;0.222;0.109;0.204;-0.133;0.156;-0.01;-1.7;-1.7;28.9;48.94;5672;2018-04-16 22:38:46:938
-2.23;-9.294;0.493;-2.344;-9.52;0.222;0.222;0.109;0.204;-0.04;0.086;-0.048;-1.7;-1.7;28.9;48.94;5682;2018-04-16 22:38:46:948
-2.337;-9.261;0.458;-2.334;-9.522;0.216;0.032;0.269;0.282;-0.007;0.076;-0.057;-1.7;-1.7;28.8;48.94;5692;2018-04-16 22:38:46:958
-2.337;-9.261;0.458;-2.334;-9.522;0.216;0.032;0.269;0.282;0.033;0.064;-0.055;-1.7;-1.7;28.8;48.94;5702;2018-04-16 22:38:46:968
-2.333;-9.316;0.266;-2.325;-9.524;0.227;-0.008;0.209;0.039;0.087;0.007;-0.053;-1.6;-1.7;28.8;48.94;5712;2018-04-16 22:38:46:978
-2.259;-9.355;0.101;-2.319;-9.525;0.241;0.06;0.17;-0.141;0.138;-0.078;-0.053;-1.6;-1.7;28.8;48.94;5724;2018-04-16 22:38:46:990
-2.259;-9.355;0.101;-2.319;-9.525;0.241;0.06;0.17;-0.141;0.138;-0.078;-0.053;-1.6;-1.7;28.8;48.94;5732;2018-04-16 22:38:46:998
-2.167;-9.358;-0.09;-2.301;-9.528;0.307;0.08;0.143;-0.364;0.192;-0.338;-0.046;-1.5;-1.7;28.8;48.94;5742;2018-04-16 22:38:47:008
-2.167;-9.358;-0.09;-2.301;-9.528;0.307;0.08;0.143;-0.364;0.195;-0.407;-0.05;-1.5;-1.7;28.8;48.94;5752;2018-04-16 22:38:47:018
-2.112;-9.398;-0.193;-2.301;-9.528;0.307;0.08;0.143;-0.364;0.195;-0.407;-0.05;-1.5;-1.7;28.8;48.94;5762;2018-04-16 22:38:47:028
-2.011;-9.425;-0.338;-2.287;-9.529;0.359;0.209;0.097;-0.594;0.209;-0.479;-0.05;-1.5;-1.7;28.8;48.94;5772;2018-04-16 22:38:47:038
-2.011;-9.425;-0.338;-2.287;-9.529;0.359;0.209;0.097;-0.594;0.228;-0.547;-0.057;-1.5;-1.7;28.8;48.94;5782;2018-04-16 22:38:47:048
-1.854;-9.469;-0.51;-2.269;-9.531;0.418;0.355;0.032;-0.873;0.195;-0.487;-0.078;-1.4;-1.6;28.8;48.94;5792;2018-04-16 22:38:47:058
-1.854;-9.469;-0.51;-2.269;-9.531;0.418;0.355;0.032;-0.873;0.195;-0.487;-0.078;-1.4;-1.6;28.8;48.94;5802;2018-04-16 22:38:47:068
-1.828;-9.33;-0.573;-2.244;-9.535;0.462;0.416;0.205;-1.035;0.153;-0.367;-0.101;-1.4;-1.5;28.9;48.94;5812;2018-04-16 22:38:47:078
-1.822;-9.327;-0.537;-2.231;-9.538;0.471;0.409;0.211;-1.009;0.105;-0.22;-0.12;-1.3;-1.5;28.9;48.94;5822;2018-04-16 22:38:47:088
-1.822;-9.327;-0.537;-2.231;-9.538;0.471;0.409;0.211;-1.009;0.105;-0.22;-0.12;-1.3;-1.5;28.9;48.94;5831;2018-04-16 22:38:47:097
-1.982;-9.374;-0.542;-2.2;-9.546;0.456;0.218;0.171;-0.998;-0.043;0.219;-0.164;-1.2;-1.4;28.9;50.56;5842;2018-04-16 22:38:47:108
-1.982;-9.374;-0.542;-2.2;-9.546;0.456;0.218;0.171;-0.998;-0.072;0.379;-0.169;-1.2;-1.4;28.9;50.56;5852;2018-04-16 22:38:47:118
-2.297;-9.38;-0.381;-2.171;-9.554;0.413;-0.126;0.174;-0.794;-0.084;0.467;-0.18;-1.1;-1.4;29.0;50.56;5862;2018-04-16 22:38:47:128
-2.528;-9.403;-0.136;-2.171;-9.554;0.413;-0.47;0.129;-0.427;-0.106;0.558;-0.189;-1.1;-1.4;29.0;50.56;5872;2018-04-16 22:38:47:138
-2.528;-9.403;-0.136;-2.144;-9.562;0.364;-0.47;0.129;-0.427;-0.106;0.558;-0.189;-1.1;-1.4;29.0;50.56;5882;2018-04-16 22:38:47:148
-2.647;-9.416;-0.025;-2.144;-9.562;0.364;-0.47;0.129;-0.427;-0.119;0.577;-0.162;-1.1;-1.4;29.0;50.56;5892;2018-04-16 22:38:47:158
-2.685;-9.39;-0.016;-2.124;-9.569;0.316;-0.551;0.155;-0.326;-0.111;0.513;-0.148;-1.1;-1.4;29.0;50.56;5902;2018-04-16 22:38:47:168
-2.685;-9.39;-0.016;-2.124;-9.569;0.316;-0.551;0.155;-0.326;-0.097;0.402;-0.131;-1.1;-1.4;29.0;50.56;5912;2018-04-16 22:38:47:178
-2.664;-9.391;0.043;-2.108;-9.573;0.282;-0.555;0.182;-0.239;-0.066;0.183;-0.099;-1.1;-1.4;28.9;50.56;5923;2018-04-16 22:38:47:189
-2.664;-9.391;0.043;-2.108;-9.573;0.282;-0.555;0.182;-0.239;-0.066;0.183;-0.099;-1.1;-1.4;28.9;50.56;5932;2018-04-16 22:38:47:198
-2.703;-9.106;0.226;-2.101;-9.575;0.272;-0.602;0.469;-0.046;-0.027;-0.072;-0.039;-1.1;-1.3;29.1;50.56;5942;2018-04-16 22:38:47:208
-2.676;-8.709;0.28;-2.099;-9.575;0.27;-0.576;0.867;0.01;-0.027;-0.072;-0.039;-1.0;-1.2;29.1;50.56;5952;2018-04-16 22:38:47:218
-2.676;-8.709;0.28;-2.099;-9.575;0.27;-0.576;0.867;0.01;-0.029;-0.09;-0.013;-1.0;-1.2;29.1;50.56;5962;2018-04-16 22:38:47:228
-2.715;-8.726;0.253;-2.111;-9.573;0.271;-0.604;0.768;-0.054;-0.021;-0.108;0.04;-1.0;-1.2;29.0;50.56;5972;2018-04-16 22:38:47:238
-2.715;-8.726;0.253;-2.111;-9.573;0.271;-0.604;0.768;-0.054;0.004;-0.137;0.088;-1.0;-1.2;29.0;50.56;5981;2018-04-16 22:38:47:247
-2.658;-8.997;0.148;-2.138;-9.566;0.284;-0.464;0.294;-0.19;0.051;-0.194;0.142;-1.0;-1.1;29.1;50.56;5992;2018-04-16 22:38:47:258
-2.594;-9.346;0.09;-2.138;-9.566;0.284;-0.464;0.294;-0.19;0.082;-0.233;0.173;-1.0;-1.1;29.1;50.56;6002;2018-04-16 22:38:47:268
-2.594;-9.346;0.09;-2.138;-9.566;0.284;-0.464;0.294;-0.19;0.082;-0.233;0.173;-1.0;-1.1;29.1;50.56;6012;2018-04-16 22:38:47:278
-2.394;-9.481;0.068;-2.176;-9.557;0.308;-0.218;0.076;-0.24;0.092;-0.244;0.209;-1.0;-1.1;29.0;50.56;6022;2018-04-16 22:38:47:288
-2.394;-9.481;0.068;-2.176;-9.557;0.308;-0.218;0.076;-0.24;0.092;-0.244;0.209;-1.0;-1.1;29.0;50.56;6031;2018-04-16 22:38:47:297
-2.154;-9.541;0.066;-2.222;-9.546;0.328;0.069;0.005;-0.262;0.059;-0.176;0.255;-1.0;-1.1;29.0;50.56;6042;2018-04-16 22:38:47:308
-2.018;-9.588;0.06;-2.248;-9.54;0.333;0.23;-0.048;-0.273;0.039;-0.136;0.277;-1.0;-1.1;29.0;50.56;6052;2018-04-16 22:38:47:318
-1.712;-9.789;0.071;-2.299;-9.527;0.342;0.587;-0.262;-0.271;0.037;-0.108;0.293;-1.0;-1.0;29.0;50.56;6062;2018-04-16 22:38:47:328
-1.712;-9.789;0.071;-2.299;-9.527;0.342;0.587;-0.262;-0.271;0.044;-0.093;0.313;-1.0;-1.0;28.9;50.56;6072;2018-04-16 22:38:47:338
-1.563;-10.169;0.055;-2.352;-9.514;0.358;0.767;-0.83;-0.29;0.084;-0.103;0.294;-1.0;-1.0;28.9;50.56;6082;2018-04-16 22:38:47:348
-1.563;-10.169;0.055;-2.352;-9.514;0.358;0.767;-0.83;-0.29;0.084;-0.103;0.294;-1.0;-1.0;28.9;50.56;6092;2018-04-16 22:38:47:358
-1.391;-10.427;0.099;-2.352;-9.514;0.358;0.767;-0.83;-0.29;0.12;-0.109;0.292;-1.0;-1.0;28.9;50.56;6102;2018-04-16 22:38:47:368
-1.049;-10.206;0.081;-2.402;-9.5;0.388;1.281;-0.764;-0.321;0.147;-0.09;0.268;-1.0;-1.0;28.9;50.56;6112;2018-04-16 22:38:47:378
-1.049;-10.206;0.081;-2.417;-9.496;0.402;1.414;-0.584;-0.322;0.154;-0.056;0.222;-1.0;-1.0;28.8;50.56;6122;2018-04-16 22:38:47:388
-0.979;-9.935;0.093;-2.429;-9.492;0.412;1.45;-0.443;-0.319;0.126;0.002;0.194;-1.0;-1.0;28.8;50.56;6132;2018-04-16 22:38:47:398
-0.979;-9.935;0.093;-2.429;-9.486;0.419;1.579;-0.286;-0.376;0.062;0.1;0.18;-0.9;-0.9;28.7;50.56;6142;2018-04-16 22:38:47:408
-0.903;-9.783;0.102;-2.457;-9.485;0.421;1.554;-0.298;-0.319;0.06;0.087;0.144;-0.9;-0.8;28.7;50.56;6152;2018-04-16 22:38:47:418
-0.903;-9.783;0.102;-2.457;-9.485;0.421;1.554;-0.298;-0.319;0.06;0.087;0.144;-0.9;-0.8;28.7;50.56;6164;2018-04-16 22:38:47:430
-0.903;-9.783;0.102;-2.457;-9.485;0.421;1.554;-0.298;-0.319;0.071;0.043;0.075;-0.9;-0.8;28.7;50.56;6172;2018-04-16 22:38:47:438
-1.243;-9.703;0.385;-2.454;-9.485;0.436;1.211;-0.218;-0.05;0.154;-0.031;-0.02;-1.0;-0.8;28.6;51.97;6182;2018-04-16 22:38:47:448
-1.349;-9.354;0.381;-2.437;-9.487;0.467;1.088;0.133;-0.086;0.166;-0.038;-0.045;-1.0;-0.8;28.6;51.97;6192;2018-04-16 22:38:47:458
-1.349;-9.354;0.381;-2.437;-9.487;0.467;1.088;0.133;-0.086;0.166;-0.038;-0.045;-1.0;-0.8;28.6;51.97;6202;2018-04-16 22:38:47:468
-1.334;-9.015;0.36;-2.423;-9.49;0.493;1.072;0.526;-0.1;0.132;-0.045;-0.05;-1.0;-0.8;28.6;51.97;6212;2018-04-16 22:38:47:478
-1.334;-9.015;0.36;-2.423;-9.49;0.493;1.072;0.526;-0.1;0.132;-0.045;-0.05;-1.0;-0.8;28.6;51.97;6222;2018-04-16 22:38:47:488
-1.407;-8.924;0.463;-2.412;-9.49;0.534;0.948;0.519;0.088;0.144;-0.136;-0.034;-0.9;-0.7;28.5;51.97;6232;2018-04-16 22:38:47:498
-1.496;-9.018;0.681;-2.412;-9.49;0.534;0.948;0.519;0.088;0.204;-0.209;-0.023;-0.9;-0.7;28.5;51.97;6242;2018-04-16 22:38:47:508
-1.581;-8.972;0.82;-2.408;-9.489;0.569;0.931;0.49;0.172;0.367;-0.276;0.001;-0.9;-0.7;28.6;51.97;6252;2018-04-16 22:38:47:518
-1.581;-8.972;0.82;-2.403;-9.485;0.658;0.743;0.413;0.168;0.43;-0.238;0.016;-0.8;-0.6;28.5;51.97;6262;2018-04-16 22:38:47:528
-1.627;-9.183;0.682;-2.403;-9.485;0.658;0.743;0.413;0.168;0.43;-0.238;0.016;-0.8;-0.6;28.5;51.97;6272;2018-04-16 22:38:47:538
-1.627;-9.183;0.682;-2.403;-9.485;0.658;0.743;0.413;0.168;0.486;-0.149;0.031;-0.8;-0.6;28.5;51.97;6282;2018-04-16 22:38:47:548
-1.648;-9.414;0.506;-2.4;-9.478;0.757;0.752;0.064;-0.251;0.486;-0.149;0.031;-0.7;-0.6;28.5;51.97;6292;2018-04-16 22:38:47:558
-1.648;-9.414;0.506;-2.4;-9.478;0.757;0.752;0.064;-0.251;0.472;-0.095;0.044;-0.7;-0.6;28.5;51.97;6301;2018-04-16 22:38:47:567
-1.603;-9.443;0.152;-2.401;-9.471;0.841;0.798;0.028;-0.689;0.434;-0.134;0.061;-0.6;-0.4;28.5;51.97;6312;2018-04-16 22:38:47:578
-1.788;-9.562;0.151;-2.403;-9.467;0.881;0.614;-0.096;-0.73;0.434;-0.134;0.061;-0.6;-0.3;28.5;51.97;6322;2018-04-16 22:38:47:588
-2.207;-9.519;0.417;-2.415;-9.456;0.959;0.207;-0.063;-0.542;0.382;-0.22;0.106;-0.5;-0.2;28.5;51.97;6332;2018-04-16 22:38:47:598
-2.207;-9.519;0.417;-2.415;-9.456;0.959;0.207;-0.063;-0.542;0.382;-0.22;0.106;-0.5;-0.2;28.5;51.97;6342;2018-04-16 22:38:47:608
-2.72;-9.558;0.567;-2.433;-9.442;1.048;-0.287;-0.116;-0.48;0.47;-0.253;0.122;-0.5;0.0;28.5;51.97;6352;2018-04-16 22:38:47:618
-2.72;-9.558;0.567;-2.433;-9.442;1.048;-0.287;-0.116;-0.48;0.47;-0.253;0.122;-0.5;0.0;28.5;51.97;6362;2018-04-16 22:38:47:628
-2.866;-9.552;0.536;-2.445;-9.431;1.116;-0.421;-0.121;-0.58;0.583;-0.291;0.131;-0.5;0.0;28.6;51.97;6372;2018-04-16 22:38:47:638
-2.897;-9.674;0.464;-2.464;-9.408;1.261;-0.433;-0.266;-0.796;0.762;-0.354;0.134;-0.4;0.2;28.7;51.97;6382;2018-04-16 22:38:47:648
-2.897;-9.674;0.464;-2.464;-9.408;1.261;-0.433;-0.266;-0.796;0.833;-0.338;0.144;-0.4;0.2;28.7;51.97;6392;2018-04-16 22:38:47:658
-2.575;-9.726;0.31;-2.464;-9.408;1.261;-0.433;-0.266;-0.796;0.833;-0.239;0.166;-0.4;0.2;28.7;51.97;6402;2018-04-16 22:38:47:668
-2.575;-9.726;0.31;-2.49;-9.378;1.424;0.068;-0.32;-1.197;0.833;-0.239;0.166;-0.3;0.4;28.6;51.97;6412;2018-04-16 22:38:47:678
-1.99;-9.609;0.079;-2.49;-9.378;1.424;0.068;-0.32;-1.197;0.753;-0.032;0.188;-0.3;0.4;28.6;51.97;6422;2018-04-16 22:38:47:688
-1.575;-9.488;0.012;-2.518;-9.352;1.539;0.943;-0.136;-1.527;0.691;0.101;0.189;-0.3;0.6;28.8;51.97;6432;2018-04-16 22:38:47:698
-1.575;-9.488;0.012;-2.518;-9.352;1.539;0.943;-0.136;-1.527;0.635;0.21;0.158;-0.3;0.6;28.8;51.97;6442;2018-04-16 22:38:47:708
-1.314;-9.582;0.016;-2.542;-9.331;1.625;1.228;-0.251;-1.61;0.593;0.293;0.127;-0.2;0.8;28.7;51.97;6453;2018-04-16 22:38:47:719
-1.306;-9.7;0.041;-2.562;-9.313;1.696;1.163;-0.476;-1.649;0.553;0.37;0.103;-0.2;1.0;28.6;51.97;6462;2018-04-16 22:38:47:728
-1.306;-9.7;0.041;-2.562;-9.313;1.696;1.163;-0.476;-1.649;0.535;0.397;0.068;-0.2;1.0;28.6;51.97;6472;2018-04-16 22:38:47:738
-1.561;-9.792;0.073;-2.562;-9.313;1.696;1.163;-0.476;-1.649;0.535;0.397;0.068;-0.2;1.0;28.6;51.97;6482;2018-04-16 22:38:47:748
-1.575;-9.713;0.226;-2.577;-9.298;1.754;0.982;-0.461;-1.598;0.509;0.441;0.043;-0.2;1.4;28.6;51.97;6492;2018-04-16 22:38:47:758
-1.575;-9.713;0.226;-2.592;-9.285;1.802;1.094;-0.433;-1.453;0.489;0.468;0.037;-0.1;1.7;28.6;50.22;6502;2018-04-16 22:38:47:768
-1.49;-9.791;0.396;-2.592;-9.285;1.802;1.094;-0.433;-1.453;0.452;0.509;0.04;-0.1;1.7;28.6;50.22;6511;2018-04-16 22:38:47:777
-1.49;-9.791;0.396;-2.592;-9.285;1.802;1.094;-0.433;-1.453;0.452;0.509;0.04;-0.1;1.7;28.6;50.22;6522;2018-04-16 22:38:47:788
-1.312;-10.354;0.608;-2.617;-9.268;1.852;1.305;-1.086;-1.244;0.457;0.53;0.066;-0.1;2.0;28.5;50.22;6532;2018-04-16 22:38:47:798
-1.312;-10.354;0.608;-2.617;-9.268;1.852;1.305;-1.086;-1.244;0.551;0.461;0.111;-0.1;2.0;28.5;50.22;6542;2018-04-16 22:38:47:808
-0.414;-10.92;0.408;-2.654;-9.242;1.929;2.24;-1.678;-1.52;0.551;0.461;0.111;-0.1;2.4;28.4;50.22;6551;2018-04-16 22:38:47:817
0.407;-11.047;-0.023;-2.675;-9.218;2.01;3.082;-1.829;-2.032;0.497;0.187;0.048;-0.2;2.7;28.4;50.22;6562;2018-04-16 22:38:47:828
0.407;-11.047;-0.023;-2.675;-9.218;2.01;3.082;-1.829;-2.032;0.497;0.187;0.048;-0.2;2.7;28.4;50.22;6572;2018-04-16 22:38:47:838
0.559;-11.144;-0.261;-2.676;-9.21;2.047;3.235;-1.934;-2.308;0.442;-0.029;0.022;-0.2;2.9;28.4;50.22;6582;2018-04-16 22:38:47:848
0.365;-11.305;-0.373;-2.667;-9.202;2.092;3.032;-2.103;-2.465;0.363;-0.292;-0.021;-0.3;3.1;28.4;50.22;6592;2018-04-16 22:38:47:858
0.365;-11.305;-0.373;-2.667;-9.202;2.092;3.032;-2.103;-2.465;0.363;-0.292;-0.021;-0.3;3.1;28.4;50.22;6603;2018-04-16 22:38:47:869
-0.961;-11.941;-0.675;-2.617;-9.198;2.171;1.656;-2.743;-2.846;0.224;-0.726;-0.143;-0.3;3.5;28.5;50.22;6613;2018-04-16 22:38:47:879
-0.961;-11.941;-0.675;-2.617;-9.198;2.171;1.656;-2.743;-2.846;0.224;-0.726;-0.143;-0.3;3.5;28.5;50.22;6622;2018-04-16 22:38:47:888
-2.33;-12.303;-1.505;-2.532;-9.207;2.233;0.202;-3.095;-3.738;0.056;-0.837;-0.298;-0.3;3.8;28.4;50.22;6632;2018-04-16 22:38:47:898
-2.33;-12.303;-1.505;-2.532;-9.207;2.233;0.202;-3.095;-3.738;-0.291;-0.44;-0.418;-0.3;3.8;28.4;50.22;6642;2018-04-16 22:38:47:908
-2.751;-11.861;-1.105;-2.437;-9.242;2.194;-0.314;-2.619;-3.299;-0.459;-0.217;-0.453;-0.3;4.2;28.3;50.22;6653;2018-04-16 22:38:47:919
-2.751;-11.861;-1.105;-2.437;-9.242;2.194;-0.314;-2.619;-3.299;-0.459;-0.217;-0.453;-0.3;4.2;28.3;50.22;6662;2018-04-16 22:38:47:928
-2.521;-11.018;0.296;-2.366;-9.311;1.967;-0.155;-1.707;-1.672;-1.266;0.76;-0.512;-0.4;4.5;28.1;50.22;6672;2018-04-16 22:38:47:938
-2.521;-11.018;0.296;-2.366;-9.311;1.967;-0.155;-1.707;-1.672;-1.266;0.76;-0.512;-0.4;4.5;28.1;50.22;6682;2018-04-16 22:38:47:948
-2.82;-10.19;1.205;-2.308;-9.396;1.599;-0.512;-0.794;-0.393;-1.801;1.214;-0.547;-0.5;4.8;28.1;50.22;6692;2018-04-16 22:38:47:958
-3.241;-9.629;1.08;-2.237;-9.472;1.203;-1.003;-0.158;-0.124;-1.823;1.069;-0.579;-0.6;4.9;28.1;50.22;6702;2018-04-16 22:38:47:968
-3.241;-9.629;1.08;-2.237;-9.472;1.203;-1.003;-0.158;-0.124;-1.823;1.069;-0.579;-0.6;4.9;28.1;50.22;6712;2018-04-16 22:38:47:978
-3.88;-9.652;1.11;-2.237;-9.472;1.203;-1.003;-0.158;-0.124;-1.846;0.983;-0.65;-0.6;4.9;28.1;50.22;6722;2018-04-16 22:38:47:988
-4.317;-9.782;1.044;-2.136;-9.537;0.804;-2.18;-0.244;0.239;-1.856;1.015;-0.661;-0.8;5.1;27.9;50.22;6732;2018-04-16 22:38:47:998
-4.317;-9.782;1.044;-2.136;-9.537;0.804;-2.18;-0.244;0.239;-1.856;1.015;-0.661;-0.8;5.1;27.9;50.22;6742;2018-04-16 22:38:48:008
-5.54;-10.307;0.697;-2.034;-9.585;0.4;-3.506;-0.722;0.296;-1.873;1.293;-0.595;-1.0;5.1;27.9;50.22;6752;2018-04-16 22:38:48:018
-5.729;-10.593;1.268;-1.992;-9.6;0.206;-3.737;-0.993;1.062;-1.896;1.48;-0.528;-1.2;5.1;27.9;50.22;6762;2018-04-16 22:38:48:028
-5.729;-10.593;1.268;-1.992;-9.6;0.206;-3.737;-0.993;1.062;-1.896;1.48;-0.528;-1.2;5.1;27.9;50.22;6772;2018-04-16 22:38:48:038
-5.525;-10.113;2.84;-1.909;-9.617;-0.212;-3.616;-0.496;3.052;-1.701;2.161;-0.415;-1.5;4.9;28.0;50.22;6782;2018-04-16 22:38:48:048
-5.399;-10.036;2.429;-1.853;-9.621;-0.421;-3.546;-0.416;2.85;-1.538;2.309;-0.454;-1.7;4.8;28.0;50.22;6793;2018-04-16 22:38:48:059
-5.399;-10.036;2.429;-1.853;-9.621;-0.421;-3.546;-0.416;2.85;-1.538;2.309;-0.454;-1.7;4.8;28.0;50.22;6802;2018-04-16 22:38:48:068
-5.525;-10.205;1.775;-1.744;-9.62;-0.758;-3.78;-0.585;2.533;-1.261;2.25;-0.407;-2.1;4.6;28.0;50.22;6812;2018-04-16 22:38:48:078
-5.525;-10.205;1.775;-1.744;-9.62;-0.758;-3.78;-0.585;2.533;-1.261;2.25;-0.407;-2.1;4.6;28.0;50.8;6823;2018-04-16 22:38:48:089
-5.236;-10.514;-0.389;-1.657;-9.61;-1.032;-3.579;-0.904;0.643;-1.035;1.936;-0.23;-3.2;3.8;28.0;50.8;6832;2018-04-16 22:38:48:098
-3.282;-10.133;-1.237;-1.657;-9.61;-1.032;-3.579;-0.904;0.643;-0.955;1.442;-0.171;-3.2;3.8;28.0;50.8;6842;2018-04-16 22:38:48:108
-3.282;-10.133;-1.237;-1.593;-9.598;-1.232;-0.176;-0.567;0.019;-0.81;0.633;-0.255;-4.9;2.5;28.3;50.8;6852;2018-04-16 22:38:48:118
0.212;-10.801;-0.696;-1.593;-9.598;-1.232;-0.176;-0.567;0.019;-0.544;-0.464;-0.529;-4.9;2.5;28.3;50.8;6862;2018-04-16 22:38:48:128
0.212;-10.801;-0.696;-1.483;-9.606;-1.3;2.784;-1.855;1.086;-0.544;-0.464;-0.529;-6.7;1.1;27.0;50.8;6872;2018-04-16 22:38:48:138
1.938;-11.796;1.316;-1.483;-9.606;-1.3;2.784;-1.855;1.086;-0.514;-0.522;-0.996;-6.7;1.1;27.0;50.8;6882;2018-04-16 22:38:48:148
1.879;-11.598;1.401;-1.271;-9.621;-1.409;3.359;-2.117;3.228;-0.604;0.568;-1.173;-6.6;0.1;25.8;50.8;6892;2018-04-16 22:38:48:158
1.879;-11.598;1.401;-1.271;-9.621;-1.409;3.359;-2.117;3.228;-0.535;1.395;-1.321;-6.6;0.1;25.8;50.8;6902;2018-04-16 22:38:48:168
-0.66;-11.119;-1.603;-0.966;-9.638;-1.53;0.306;-1.48;-0.073;-0.406;1.401;-1.406;-7.5;-0.8;28.1;50.8;6912;2018-04-16 22:38:48:178
-2.732;-9.967;-1.013;-0.966;-9.638;-1.53;0.306;-1.48;-0.073;-0.498;0.461;-1.106;-7.5;-0.8;28.1;50.8;6922;2018-04-16 22:38:48:188
-3.035;-9.341;-0.233;-0.75;-9.641;-1.629;-2.284;0.3;1.396;-0.547;0.206;-0.953;-7.8;-0.7;26.7;50.8;6932;2018-04-16 22:38:48:198
-3.035;-9.341;-0.233;-0.75;-9.641;-1.629;-2.284;0.3;1.396;-0.547;0.206;-0.953;-7.8;-0.7;26.7;50.8;6942;2018-04-16 22:38:48:208
-3.798;-7.683;0.812;-0.653;-9.625;-1.76;-3.145;1.942;2.572;-0.797;-0.335;-0.5;-8.6;-0.8;26.5;50.8;6952;2018-04-16 22:38:48:218
-3.798;-7.683;0.812;-0.653;-9.625;-1.76;-3.145;1.942;2.572;-0.797;-0.335;-0.5;-8.6;-0.8;26.5;50.8;6962;2018-04-16 22:38:48:228
-4.028;-5.725;1.055;-0.598;-9.587;-1.976;-3.43;3.862;3.031;-1.45;-0.134;-0.36;-8.5;-1.1;26.4;50.8;6973;2018-04-16 22:38:48:239
-4.621;-5.254;0.492;-0.598;-9.587;-1.976;-3.43;3.862;3.031;-1.45;-0.134;-0.36;-8.5;-1.1;26.4;50.8;6983;2018-04-16 22:38:48:249
-4.621;-5.254;0.492;-0.533;-9.526;-2.266;-4.088;4.272;2.758;-1.58;-0.055;-0.371;-8.8;-2.2;26.6;50.8;6992;2018-04-16 22:38:48:258
-4.38;-5.151;-0.463;-0.533;-9.526;-2.266;-4.088;4.272;2.758;-1.663;-0.015;-0.347;-8.8;-2.2;26.6;50.8;7002;2018-04-16 22:38:48:268
-4.38;-5.151;-0.463;-0.474;-9.449;-2.582;-3.725;4.365;1.994;-1.663;-0.015;-0.347;-8.7;-2.8;26.8;50.8;7012;2018-04-16 22:38:48:278
-3.735;-5.252;-1.31;-0.474;-9.449;-2.582;-3.725;4.365;1.994;-1.521;0.116;-0.206;-8.7;-2.8;26.8;50.8;7022;2018-04-16 22:38:48:288
-2.727;-5.307;-1.416;-0.441;-9.375;-2.842;-2.672;4.072;1.295;-1.251;0.144;-0.088;-9.0;-2.8;26.9;50.8;7032;2018-04-16 22:38:48:298
-2.727;-5.307;-1.416;-0.441;-9.375;-2.842;-2.672;4.072;1.295;-1.251;0.144;-0.088;-9.0;-2.8;26.9;50.8;7042;2018-04-16 22:38:48:308
-1.284;-5.145;-0.898;-0.455;-9.342;-2.947;-0.829;4.197;2.049;-0.285;0.158;0.169;-9.2;-3.2;26.5;50.8;7052;2018-04-16 22:38:48:318
-0.3;-4.996;-0.781;-0.455;-9.342;-2.947;-0.829;4.197;2.049;0.092;0.302;0.215;-9.2;-3.2;26.5;50.8;7062;2018-04-16 22:38:48:328
-0.3;-4.996;-0.781;-0.476;-9.356;-2.9;0.583;4.305;1.758;0.092;0.302;0.215;-9.5;-3.5;26.5;50.8;7072;2018-04-16 22:38:48:338
0.516;-5.478;-1.854;-0.476;-9.356;-2.9;0.583;4.305;1.758;0.659;0.303;0.232;-9.5;-3.5;26.5;50.8;7082;2018-04-16 22:38:48:348
0.516;-5.478;-1.854;-0.509;-9.395;-2.765;1.564;3.352;0.364;0.789;0.077;0.237;-9.7;-3.4;26.8;50.8;7092;2018-04-16 22:38:48:358
1.626;-6.754;-2.848;-0.509;-9.395;-2.765;1.564;3.352;0.364;0.814;-0.125;0.214;-9.7;-3.4;26.8;50.8;7102;2018-04-16 22:38:48:368
2.52;-8.739;-3.965;-0.555;-9.435;-2.615;2.803;1.683;-0.712;0.768;-0.318;0.161;-9.9;-3.6;26.6;50.8;7113;2018-04-16 22:38:48:379
2.52;-8.739;-3.965;-0.555;-9.435;-2.615;2.803;1.683;-0.712;0.655;-0.751;0.02;-9.9;-3.6;26.6;50.8;7122;2018-04-16 22:38:48:388
2.608;-10.289;-4.884;-0.585;-9.467;-2.491;3.063;-0.194;-1.989;0.397;-1.096;-0.024;-10.1;-4.0;26.5;50.8;7132;2018-04-16 22:38:48:398
2.608;-10.289;-4.884;-0.585;-9.467;-2.491;3.063;-0.194;-1.989;0.397;-1.096;-0.024;-10.1;-4.0;26.5;58.76;7142;2018-04-16 22:38:48:408
2.978;-11.046;-4.915;-0.634;-9.48;-2.429;3.612;-1.566;-2.486;0.142;-1.162;-0.035;-10.2;-4.3;26.3;58.76;7152;2018-04-16 22:38:48:418
3.071;-11.909;-3.962;-0.634;-9.48;-2.429;3.612;-1.566;-2.486;-0.143;-1.037;-0.095;-10.2;-4.3;26.3;58.76;7162;2018-04-16 22:38:48:428
3.158;-11.946;-4.343;-0.664;-9.474;-2.443;3.834;-2.591;-1.382;-0.246;-0.644;-0.18;-10.1;-4.5;26.3;58.76;7172;2018-04-16 22:38:48:438
3.158;-11.946;-4.343;-0.664;-9.474;-2.443;3.834;-2.591;-1.382;-0.246;-0.644;-0.18;-10.1;-4.5;26.3;58.76;7182;2018-04-16 22:38:48:448
2.644;-11.656;-5.517;-0.644;-9.463;-2.49;3.289;-2.193;-3.028;-0.308;-0.334;-0.263;-10.1;-4.7;26.3;58.76;7192;2018-04-16 22:38:48:458
1.184;-10.363;-7.271;-0.644;-9.463;-2.49;3.289;-2.193;-3.028;-0.385;0.065;-0.374;-10.1;-4.7;26.3;58.76;7202;2018-04-16 22:38:48:468
1.184;-10.363;-7.271;-0.571;-9.449;-2.562;1.132;-0.161;-5.196;-0.2;0.046;-0.442;-10.1;-4.9;26.2;58.76;7212;2018-04-16 22:38:48:478
-0.383;-8.571;-7.408;-0.571;-9.449;-2.562;1.132;-0.161;-5.196;-0.2;0.046;-0.442;-10.1;-4.9;26.2;58.76;7222;2018-04-16 22:38:48:488
-0.383;-8.571;-7.408;-0.499;-9.449;-2.577;-1.254;1.405;-2.877;0.136;-0.191;-0.442;-10.0;-5.1;26.1;58.76;7232;2018-04-16 22:38:48:498
-3.182;-7.683;-3.443;-0.499;-9.449;-2.577;-1.254;1.405;-2.877;0.546;-0.323;-0.292;-10.0;-5.1;26.1;58.76;7242;2018-04-16 22:38:48:508
-4.407;-7.24;-2.602;-0.502;-9.484;-2.442;-3.904;2.244;-0.16;0.849;-0.357;0.01;-9.9;-5.3;26.1;58.76;7252;2018-04-16 22:38:48:518
-4.407;-7.24;-2.602;-0.502;-9.484;-2.442;-3.904;2.244;-0.16;0.828;-0.64;0.536;-9.9;-5.3;26.1;58.76;7262;2018-04-16 22:38:48:528
-4.806;-8.466;0.323;-0.67;-9.518;-2.265;-4.136;1.052;2.588;0.716;-0.746;0.801;-9.8;-5.4;26.2;58.76;7272;2018-04-16 22:38:48:538
-4.554;-10.794;1.001;-0.759;-9.527;-2.197;-3.826;0.342;2.908;0.716;-0.746;0.801;-9.8;-5.4;26.2;58.76;7282;2018-04-16 22:38:48:548
-4.554;-10.794;1.001;-0.759;-9.527;-2.197;-3.826;0.342;2.908;0.94;-0.673;0.865;-9.7;-5.3;26.3;58.76;7292;2018-04-16 22:38:48:558
-1.968;-16.561;-1.669;-0.948;-9.558;-1.977;-1.02;-7.002;0.309;1.269;-0.671;0.819;-9.7;-5.2;26.3;58.76;7303;2018-04-16 22:38:48:569
-1.567;-15.411;-3.092;-0.979;-9.584;-1.834;-0.588;-5.828;-1.258;0.461;1.438;0.023;-9.5;-5.0;26.3;58.76;7314;2018-04-16 22:38:48:580
-1.567;-15.411;-3.092;-0.979;-9.584;-1.834;-0.588;-5.828;-1.258;0.461;1.438;0.023;-9.5;-5.0;26.3;58.76;7323;2018-04-16 22:38:48:589
-3.146;-7.003;1.616;-0.883;-9.581;-1.897;-2.263;2.578;3.513;-0.018;2.263;0.026;-9.4;-4.9;26.3;58.76;7332;2018-04-16 22:38:48:598
-3.146;-7.003;1.616;-0.883;-9.581;-1.897;-2.263;2.578;3.513;-0.018;2.263;0.026;-9.4;-4.9;26.3;58.76;7345;2018-04-16 22:38:48:611
-3.381;-5.121;1.294;-0.861;-9.586;-1.879;-2.52;4.465;3.173;0.341;1.95;0.165;-9.4;-4.5;26.3;58.76;7355;2018-04-16 22:38:48:621
-3.381;-5.121;1.294;-0.861;-9.586;-1.879;-2.52;4.465;3.173;0.341;1.95;0.165;-9.4;-4.5;26.3;58.76;7362;2018-04-16 22:38:48:628
-4.453;-5.164;-3.424;-0.892;-9.6;-1.79;-3.561;4.436;-1.633;0.578;1.003;0.486;-9.3;-4.1;26.3;58.76;7372;2018-04-16 22:38:48:638
-4.453;-5.164;-3.424;-0.892;-9.6;-1.79;-3.561;4.436;-1.633;0.578;1.003;0.486;-9.3;-4.1;26.3;58.76;7382;2018-04-16 22:38:48:648
-4.657;-8.426;0.809;-1.081;-9.599;-1.689;-3.576;1.173;2.498;0.512;0.075;1.051;-9.3;-3.7;26.2;58.76;7392;2018-04-16 22:38:48:658
-4.062;-9.632;1.113;-1.081;-9.599;-1.689;-3.576;1.173;2.498;0.58;-0.198;1.37;-9.3;-3.7;26.2;58.76;7402;2018-04-16 22:38:48:668
-3.558;-10.126;1.19;-1.354;-9.585;-1.568;-2.419;-0.306;2.765;0.563;-0.294;1.407;-9.4;-3.4;26.2;58.76;7413;2018-04-16 22:38:48:679
-3.558;-10.126;1.19;-1.354;-9.585;-1.568;-2.419;-0.306;2.765;0.419;-0.533;1.271;-9.4;-3.4;26.2;58.76;7422;2018-04-16 22:38:48:688
-3.261;-10.903;1.219;-1.614;-9.56;-1.472;-1.647;-1.343;2.69;0.156;-0.854;0.87;-9.5;-3.0;26.2;58.76;7433;2018-04-16 22:38:48:699
-3.261;-10.903;1.219;-1.614;-9.56;-1.472;-1.647;-1.343;2.69;0.156;-0.854;0.87;-9.5;-3.0;26.2;58.76;7442;2018-04-16 22:38:48:708
-3.014;-11.1;1.61;-1.805;-9.535;-1.411;-1.209;-1.564;3.022;0.156;-0.854;0.87;-9.6;-2.7;26.1;58.76;7452;2018-04-16 22:38:48:718
-2.576;-10.387;1.53;-1.805;-9.535;-1.411;-1.209;-1.564;3.022;0.046;-1.114;0.733;-9.6;-2.7;26.1;58.76;7462;2018-04-16 22:38:48:728
-2.576;-10.387;1.53;-1.978;-9.508;-1.36;-0.447;-0.669;2.793;0.0;-1.24;0.731;-9.7;-2.3;26.0;58.76;7472;2018-04-16 22:38:48:738
-2.16;-9.88;1.075;-1.978;-9.508;-1.36;-0.447;-0.669;2.793;-0.119;-1.312;0.784;-9.7;-2.3;26.0;56.85;7482;2018-04-16 22:38:48:748
-1.688;-10.246;0.491;-2.159;-9.475;-1.317;0.273;-0.418;1.987;-0.312;-1.28;0.832;-9.7;-1.9;26.1;56.85;7492;2018-04-16 22:38:48:758
-1.688;-10.246;0.491;-2.159;-9.475;-1.317;0.273;-0.418;1.987;-0.312;-1.28;0.832;-9.7;-1.9;26.1;56.85;7502;2018-04-16 22:38:48:768
-1.368;-10.605;0.261;-2.352;-9.428;-1.325;0.984;-1.177;1.586;-0.403;-1.234;0.877;-9.8;-1.5;26.0;56.85;7512;2018-04-16 22:38:48:778
-1.368;-10.605;0.261;-2.352;-9.428;-1.325;0.984;-1.177;1.586;-0.403;-1.234;0.877;-9.8;-1.5;26.0;56.85;7522;2018-04-16 22:38:48:788
0.557;-9.829;0.065;-2.551;-9.399;-1.145;3.108;-0.43;1.21;1.943;-1.178;0.558;-9.7;-1.1;26.2;56.85;7533;2018-04-16 22:38:48:799
0.557;-9.829;0.065;-2.551;-9.399;-1.145;3.108;-0.43;1.21;1.943;-1.178;0.558;-9.7;-1.1;26.2;56.85;7543;2018-04-16 22:38:48:809
-0.552;-10.29;-0.35;-2.593;-9.428;-0.749;2.041;-0.862;0.399;1.862;-0.533;-0.021;-9.6;-0.6;26.1;56.85;7553;2018-04-16 22:38:48:819
-0.552;-10.29;-0.35;-2.593;-9.428;-0.749;2.041;-0.862;0.399;1.862;-0.533;-0.021;-9.6;-0.6;26.1;56.85;7562;2018-04-16 22:38:48:828
-1.957;-9.882;-0.316;-2.54;-9.457;-0.527;0.582;-0.425;0.211;1.048;0.475;-0.199;-9.5;-0.2;26.1;56.85;7572;2018-04-16 22:38:48:838
-1.957;-9.882;-0.316;-2.54;-9.457;-0.527;0.582;-0.425;0.211;1.048;0.475;-0.199;-9.5;-0.2;26.1;56.85;7582;2018-04-16 22:38:48:848
-0.761;-8.702;-1.1;-2.553;-9.457;-0.472;1.792;0.755;-0.628;0.297;0.522;0.206;-9.4;0.2;26.1;56.85;7593;2018-04-16 22:38:48:859
-0.761;-8.702;-1.1;-2.553;-9.457;-0.472;1.792;0.755;-0.628;-0.087;0.051;0.184;-9.4;0.2;26.1;56.85;7602;2018-04-16 22:38:48:868
-0.557;-7.96;-0.248;-2.585;-9.447;-0.485;2.029;1.488;0.237;-0.15;-0.274;0.137;-9.4;0.5;26.2;56.85;7613;2018-04-16 22:38:48:879
-0.557;-7.96;-0.248;-2.585;-9.447;-0.485;2.029;1.488;0.237;-0.15;-0.274;0.137;-9.4;0.5;26.2;56.85;7623;2018-04-16 22:38:48:889
-1.52;-8.429;0.279;-2.602;-9.447;-0.39;1.082;1.018;0.669;0.502;-0.825;0.042;-9.4;0.9;26.2;56.85;7633;2018-04-16 22:38:48:899
-1.688;-9.061;0.164;-2.608;-9.449;-0.297;0.92;0.388;0.461;0.808;-0.977;0.061;-9.3;1.1;26.2;56.85;7642;2018-04-16 22:38:48:908
-1.593;-9.301;-0.019;-2.608;-9.449;-0.297;0.92;0.388;0.461;0.877;-0.976;0.049;-9.3;1.1;26.2;56.85;7652;2018-04-16 22:38:48:918
-1.593;-9.301;-0.019;-2.614;-9.452;-0.082;0.991;0.178;0.053;0.877;-0.976;0.049;-9.2;1.4;26.3;56.85;7662;2018-04-16 22:38:48:928
-1.771;-9.127;0.049;-2.614;-9.452;-0.082;0.991;0.178;0.053;0.716;-0.777;0.02;-9.2;1.4;26.3;56.85;7672;2018-04-16 22:38:48:938
-1.974;-8.8;0.257;-2.613;-9.452;0.082;0.686;0.539;0.117;0.627;-0.443;0.013;-8.9;1.8;26.3;56.85;7682;2018-04-16 22:38:48:948
-1.974;-8.8;0.257;-2.613;-9.451;0.156;0.608;0.779;0.136;0.634;-0.314;0.006;-8.7;2.0;26.4;56.85;7692;2018-04-16 22:38:48:958
-2.077;-8.581;0.299;-2.613;-9.451;0.284;0.462;0.891;-0.064;0.696;0.057;-0.045;-8.4;2.5;26.4;56.85;7703;2018-04-16 22:38:48:969
-2.176;-8.575;0.154;-2.604;-9.45;0.284;0.462;0.891;-0.064;0.696;0.057;-0.045;-8.4;2.5;26.4;56.85;7713;2018-04-16 22:38:48:979
-2.176;-8.575;0.154;-2.599;-9.45;0.338;0.437;0.846;-0.257;0.723;0.349;-0.062;-8.2;2.6;26.4;56.85;7722;2018-04-16 22:38:48:988
-2.187;-8.805;0.028;-2.599;-9.45;0.338;0.437;0.846;-0.257;0.699;0.48;-0.032;-8.2;2.6;26.4;56.85;7732;2018-04-16 22:38:48:998
-2.241;-8.993;-0.002;-2.596;-9.446;0.443;0.355;0.454;-0.446;0.689;0.473;-0.002;-7.9;3.0;26.4;56.85;7742;2018-04-16 22:38:49:008
-2.54;-9.414;0.011;-2.606;-9.438;0.555;0.066;0.024;-0.544;0.755;0.329;0.064;-7.6;3.4;26.5;56.85;7752;2018-04-16 22:38:49:018
-2.54;-9.414;0.011;-2.606;-9.438;0.555;0.066;0.024;-0.544;0.755;0.329;0.064;-7.6;3.4;26.5;56.85;7764;2018-04-16 22:38:49:030
-2.585;-9.603;-0.122;-2.619;-9.429;0.639;0.034;-0.174;-0.761;0.888;0.137;0.114;-7.5;3.6;26.4;56.85;7772;2018-04-16 22:38:49:038
-2.585;-9.603;-0.122;-2.619;-9.429;0.639;0.034;-0.174;-0.761;1.145;-0.249;0.173;-7.5;3.6;26.4;56.85;7783;2018-04-16 22:38:49:049
-2.272;-9.789;-0.251;-2.646;-9.404;0.861;0.374;-0.385;-1.112;1.145;-0.249;0.173;-7.4;4.0;26.3;56.85;7792;2018-04-16 22:38:49:058
-1.665;-9.529;-0.347;-2.646;-9.404;0.861;0.374;-0.385;-1.112;1.294;-0.529;0.225;-7.4;4.0;26.3;57.52;7802;2018-04-16 22:38:49:068
-1.665;-9.529;-0.347;-2.669;-9.37;1.117;1.196;-0.011;-1.503;1.264;-0.595;0.219;-7.3;4.5;26.3;57.52;7812;2018-04-16 22:38:49:078
-1.408;-9.161;-0.396;-2.684;-9.336;1.343;1.176;0.284;-1.805;1.104;-0.544;0.184;-7.2;5.0;26.2;57.52;7822;2018-04-16 22:38:49:088
-1.543;-9.003;-0.508;-2.684;-9.336;1.343;1.176;0.284;-1.805;1.04;-0.441;0.164;-7.2;5.0;26.2;57.52;7832;2018-04-16 22:38:49:098
-1.543;-9.003;-0.508;-2.684;-9.336;1.343;1.176;0.284;-1.805;1.04;-0.441;0.164;-7.2;5.0;26.2;57.52;7842;2018-04-16 22:38:49:108
-1.471;-9.225;-1.08;-2.694;-9.305;1.529;1.223;0.08;-2.609;1.01;-0.149;0.098;-7.1;5.5;26.2;57.52;7853;2018-04-16 22:38:49:119
-1.471;-9.225;-1.08;-2.694;-9.305;1.529;1.223;0.08;-2.609;1.01;-0.149;0.098;-7.1;5.5;26.2;57.52;7862;2018-04-16 22:38:49:128
-1.342;-10.093;-1.841;-2.694;-9.287;1.634;1.352;-0.806;-3.475;0.679;0.48;-0.053;-7.1;6.0;26.0;57.52;7871;2018-04-16 22:38:49:137
-1.342;-10.093;-1.841;-2.694;-9.287;1.634;1.352;-0.806;-3.475;0.679;0.48;-0.053;-7.1;6.0;26.0;57.52;7882;2018-04-16 22:38:49:148
-1.25;-11.204;-1.73;-2.706;-9.284;1.632;1.456;-1.92;-3.361;0.082;0.905;-0.077;-7.1;6.5;25.8;57.52;7892;2018-04-16 22:38:49:158
-1.25;-11.204;-1.73;-2.706;-9.284;1.632;1.456;-1.92;-3.361;-0.05;0.861;-0.083;-7.1;6.5;25.8;57.52;7903;2018-04-16 22:38:49:169
-0.795;-11.609;-1.067;-2.711;-9.292;1.572;1.916;-2.317;-2.639;-0.117;0.726;-0.125;-7.0;7.0;25.6;57.52;7912;2018-04-16 22:38:49:178
-0.795;-11.609;-1.067;-2.711;-9.292;1.572;1.916;-2.317;-2.639;-0.117;0.726;-0.125;-7.0;7.0;25.6;57.52;7922;2018-04-16 22:38:49:188
-0.492;-11.854;-0.303;-2.685;-9.308;1.524;2.193;-2.546;-1.827;-0.134;0.294;-0.219;-7.0;7.4;25.5;57.52;7932;2018-04-16 22:38:49:198
-0.492;-11.854;-0.303;-2.685;-9.308;1.524;2.193;-2.546;-1.827;-0.134;0.294;-0.219;-7.0;7.4;25.5;57.52;7942;2018-04-16 22:38:49:208
-0.043;-12.203;-0.273;-2.63;-9.325;1.513;2.587;-2.878;-1.786;-0.057;-0.153;-0.312;-7.0;7.9;25.2;57.52;7952;2018-04-16 22:38:49:218
-0.043;-12.203;-0.273;-2.63;-9.325;1.513;2.587;-2.878;-1.786;-0.062;-0.369;-0.379;-7.0;7.9;25.2;57.52;7962;2018-04-16 22:38:49:228
-0.182;-12.771;-1.276;-2.537;-9.35;1.517;2.355;-3.42;-2.793;-0.136;-0.55;-0.453;-7.2;8.3;25.0;57.52;7971;2018-04-16 22:38:49:237
-0.182;-12.771;-1.276;-2.537;-9.35;1.517;2.355;-3.42;-2.793;-0.136;-0.55;-0.453;-7.2;8.3;25.0;57.52;7982;2018-04-16 22:38:49:248
-1.147;-12.549;-2.551;-2.417;-9.389;1.476;1.27;-3.16;-4.027;-0.485;-0.634;-0.558;-7.3;8.6;24.7;57.52;7992;2018-04-16 22:38:49:258
-1.742;-11.86;-2.743;-2.417;-9.389;1.476;1.27;-3.16;-4.027;-1.06;-0.227;-0.617;-7.3;8.6;24.7;57.52;8002;2018-04-16 22:38:49:268
-2.296;-11.323;-1.402;-2.294;-9.448;1.279;0.41;-2.235;-3.757;-1.837;0.303;-0.685;-7.4;9.0;24.5;57.52;8012;2018-04-16 22:38:49:278
-2.296;-11.323;-1.402;-2.294;-9.448;1.279;0.41;-2.235;-3.757;-1.837;0.303;-0.685;-7.4;9.0;24.5;57.52;8022;2018-04-16 22:38:49:288
-2.296;-11.323;-1.402;-2.169;-9.524;0.872;-0.699;-1.358;-1.32;-2.216;0.483;-0.716;-7.5;9.4;24.4;57.52;8031;2018-04-16 22:38:49:297
-3.419;-10.382;-0.16;-2.169;-9.524;0.872;-0.699;-1.358;-1.32;-2.461;0.536;-0.734;-7.5;9.4;24.4;57.52;8042;2018-04-16 22:38:49:308
-4.48;-9.789;1.454;-2.034;-9.587;0.361;-1.99;-0.372;-0.026;-2.623;0.606;-0.755;-7.7;9.5;24.2;57.52;8052;2018-04-16 22:38:49:318
-4.48;-9.789;1.454;-2.034;-9.587;0.361;-1.99;-0.372;-0.026;-2.623;0.606;-0.755;-7.7;9.5;24.2;57.52;8062;2018-04-16 22:38:49:328
-4.48;-9.918;3.537;-1.892;-9.621;-0.177;-2.905;-0.234;2.96;-2.604;0.874;-0.735;-7.9;9.6;24.2;57.52;8072;2018-04-16 22:38:49:338
-4.389;-10.266;3.765;-1.74;-9.628;-0.665;-2.648;-0.638;4.43;-2.315;1.247;-0.718;-8.1;9.6;24.2;57.52;8082;2018-04-16 22:38:49:348
-4.389;-10.266;3.765;-1.74;-9.628;-0.665;-2.648;-0.638;4.43;-2.046;1.464;-0.792;-8.1;9.6;24.2;57.52;8097;2018-04-16 22:38:49:363
-4.389;-10.266;3.765;-1.74;-9.628;-0.665;-2.648;-0.638;4.43;-2.046;1.464;-0.792;-8.1;9.6;24.2;57.52;8102;2018-04-16 22:38:49:368
-5.965;-11.744;3.801;-1.567;-9.624;-1.04;-4.398;-2.119;4.841;-1.521;1.603;-0.723;-8.3;9.5;24.0;57.52;8112;2018-04-16 22:38:49:378
-5.965;-11.744;3.801;-1.567;-9.624;-1.04;-4.398;-2.119;4.841;-1.196;1.676;-0.585;-8.3;9.5;24.0;52.04;8121;2018-04-16 22:38:49:387
-5.816;-11.73;2.617;-1.423;-9.615;-1.301;-4.393;-2.115;3.917;-0.954;1.897;-0.476;-8.6;9.2;24.0;52.04;8132;2018-04-16 22:38:49:398
-5.816;-11.73;2.617;-1.423;-9.615;-1.301;-4.393;-2.115;3.917;-0.822;1.906;-0.469;-8.6;9.2;24.0;52.04;8142;2018-04-16 22:38:49:408
-4.058;-10.343;-1.31;-1.284;-9.605;-1.502;-2.775;-0.737;0.193;-0.709;0.816;-0.514;-9.0;8.9;23.8;52.04;8152;2018-04-16 22:38:49:418
-4.058;-10.343;-1.31;-1.284;-9.605;-1.502;-2.775;-0.737;0.193;-0.709;0.816;-0.514;-9.0;8.9;23.8;52.04;8162;2018-04-16 22:38:49:428
1.225;-10.056;-0.491;-1.193;-9.586;-1.692;-1.315;-0.35;-2.092;-1.37;-0.933;-0.419;-10.0;7.8;23.8;52.04;8172;2018-04-16 22:38:49:438
1.225;-10.056;-0.491;-1.193;-9.586;-1.692;-1.315;-0.35;-2.092;-1.37;-0.933;-0.419;-11.2;6.2;24.3;52.04;8182;2018-04-16 22:38:49:448
2.291;-11.43;1.235;-1.118;-9.555;-1.903;2.984;-1.129;1.854;-1.179;-0.79;-0.943;-11.2;6.2;24.3;52.04;8192;2018-04-16 22:38:49:458
2.291;-11.43;1.235;-1.118;-9.555;-1.903;2.984;-1.129;1.854;-1.179;-0.79;-0.943;-11.2;6.2;24.3;52.04;8202;2018-04-16 22:38:49:468
1.526;-11.79;1.429;-0.932;-9.529;-2.119;2.458;-2.261;3.549;-1.145;0.272;-1.076;-11.3;5.1;23.6;52.04;8212;2018-04-16 22:38:49:478
1.526;-11.79;1.429;-0.932;-9.529;-2.119;2.458;-2.261;3.549;-1.145;0.272;-1.076;-11.3;5.1;23.6;52.04;8222;2018-04-16 22:38:49:488
-0.681;-9.756;-0.427;-0.705;-9.507;-2.301;0.024;-0.25;1.874;-0.855;0.959;-0.891;-12.0;4.4;24.6;52.04;8232;2018-04-16 22:38:49:498
-0.681;-9.756;-0.427;-0.705;-9.507;-2.301;0.024;-0.25;1.874;-0.855;0.959;-0.891;-12.0;4.4;24.6;52.04;8242;2018-04-16 22:38:49:508
-2.006;-8.689;0.694;-0.555;-9.493;-2.396;-1.451;0.805;3.091;-0.425;0.116;-0.691;-12.3;4.0;23.5;52.04;8252;2018-04-16 22:38:49:518
-2.006;-8.689;0.694;-0.555;-9.493;-2.396;-1.451;0.805;3.091;-0.274;-0.067;-0.586;-12.3;4.0;23.5;52.04;8262;2018-04-16 22:38:49:528
-2.636;-7.542;0.915;-0.454;-9.488;-2.439;-2.182;1.946;3.353;-0.224;0.026;-0.52;-13.1;2.6;23.9;52.04;8272;2018-04-16 22:38:49:538
-2.636;-7.542;0.915;-0.454;-9.488;-2.439;-2.182;1.946;3.353;-0.271;-0.002;-0.514;-13.1;2.6;23.9;52.04;8282;2018-04-16 22:38:49:548
-3.947;-6.375;0.335;-0.365;-9.475;-2.503;-3.581;3.1;2.838;-0.407;-0.263;-0.501;-13.0;2.9;24.4;52.04;8291;2018-04-16 22:38:49:557
-3.947;-6.375;0.335;-0.365;-9.475;-2.503;-3.581;3.1;2.838;-0.407;-0.263;-0.501;-13.0;2.9;24.4;52.04;8302;2018-04-16 22:38:49:568
-4.308;-5.089;0.912;-0.312;-9.439;-2.643;-3.996;4.35;3.555;-0.888;-0.542;-0.402;-13.2;2.4;24.2;52.04;8312;2018-04-16 22:38:49:578
-4.308;-5.089;0.912;-0.312;-9.439;-2.643;-3.996;4.35;3.555;-1.218;-0.17;-0.363;-13.2;2.4;24.2;52.04;8322;2018-04-16 22:38:49:588
-4.041;-5.104;0.04;-0.254;-9.373;-2.871;-3.787;4.269;2.911;-1.218;-0.17;-0.363;-13.2;2.1;24.1;52.04;8331;2018-04-16 22:38:49:597
-4.041;-5.104;0.04;-0.254;-9.373;-2.871;-3.787;4.269;2.911;-1.256;0.068;-0.261;-13.2;2.1;24.1;52.04;8342;2018-04-16 22:38:49:608
-3.571;-5.137;-1.32;-0.22;-9.305;-3.088;-3.351;4.168;1.768;-1.111;0.044;-0.108;-13.1;2.4;24.2;52.04;8352;2018-04-16 22:38:49:618
-3.571;-5.137;-1.32;-0.22;-9.305;-3.088;-3.351;4.168;1.768;-1.111;0.044;-0.108;-13.1;2.4;24.2;52.04;8362;2018-04-16 22:38:49:628
-2.568;-4.203;-1.097;-0.255;-9.267;-3.199;-2.313;5.064;2.102;-0.415;-0.162;0.217;-13.3;2.1;24.2;52.04;8372;2018-04-16 22:38:49:638
-2.568;-4.203;-1.097;-0.255;-9.267;-3.199;-2.313;5.064;2.102;0.232;-0.279;0.395;-13.3;2.1;24.2;52.04;8382;2018-04-16 22:38:49:648
-1.493;-3.928;-1.249;-0.347;-9.28;-3.152;-1.146;5.352;1.904;0.232;-0.279;0.395;-13.6;1.5;24.1;52.04;8392;2018-04-16 22:38:49:658
-0.528;-4.566;-1.737;-0.347;-9.28;-3.152;-1.146;5.352;1.904;0.76;-0.417;0.524;-13.6;1.5;24.1;52.04;8402;2018-04-16 22:38:49:668
-0.528;-4.566;-1.737;-0.483;-9.329;-2.983;0.367;4.371;0.94;0.997;-0.507;0.623;-13.8;1.0;24.1;52.04;8412;2018-04-16 22:38:49:678
0.332;-5.936;-2.631;-0.483;-9.329;-2.983;0.367;4.371;0.94;0.997;-0.507;0.623;-13.8;1.0;24.1;52.04;8424;2018-04-16 22:38:49:690
0.642;-6.991;-3.486;-0.652;-9.387;-2.761;1.294;2.396;-0.725;1.167;-0.69;0.724;-14.0;0.6;24.2;52.04;8432;2018-04-16 22:38:49:698
0.642;-6.991;-3.486;-0.652;-9.387;-2.761;1.294;2.396;-0.725;1.129;-0.881;0.751;-14.0;0.6;24.2;60.92;8441;2018-04-16 22:38:49:707
0.278;-9.764;-5.399;-0.861;-9.427;-2.563;1.139;-0.337;-2.836;0.696;-1.631;0.996;-14.1;0.3;24.3;60.92;8452;2018-04-16 22:38:49:718
0.278;-9.764;-5.399;-0.861;-9.427;-2.563;1.139;-0.337;-2.836;0.696;-1.631;0.996;-14.1;0.3;24.3;60.92;8462;2018-04-16 22:38:49:728
1.911;-12.948;-6.894;-1.141;-9.431;-2.434;3.051;-3.517;-4.46;0.351;-1.725;1.079;-14.0;0.1;24.4;60.92;8472;2018-04-16 22:38:49:738
1.911;-12.948;-6.894;-1.141;-9.431;-2.434;3.051;-3.517;-4.46;0.013;-1.478;0.914;-14.0;0.1;24.4;60.92;8482;2018-04-16 22:38:49:748
4.681;-14.937;-3.638;-1.32;-9.411;-2.42;6.0;-5.526;-1.218;0.013;-1.478;0.914;-13.9;0.1;24.6;60.92;8492;2018-04-16 22:38:49:758
4.681;-14.937;-3.638;-1.32;-9.411;-2.42;6.0;-5.526;-1.218;-0.122;-0.021;-0.11;-13.9;0.1;24.6;60.92;8502;2018-04-16 22:38:49:768
4.381;-14.746;-6.13;-1.238;-9.415;-2.447;5.62;-5.331;-3.683;-0.094;0.553;-0.555;-13.7;0.1;24.7;60.92;8511;2018-04-16 22:38:49:777
4.381;-14.746;-6.13;-1.238;-9.415;-2.447;5.62;-5.331;-3.683;-0.054;0.695;-0.864;-13.7;0.1;24.7;60.92;8522;2018-04-16 22:38:49:788
2.731;-11.175;-7.964;-1.027;-9.436;-2.464;3.758;-1.739;-5.501;0.031;0.544;-1.013;-13.6;0.1;24.7;60.92;8532;2018-04-16 22:38:49:798
1.292;-9.318;-6.5;-1.027;-9.436;-2.464;3.758;-1.739;-5.501;0.143;-0.183;-0.93;-13.6;0.1;24.7;60.92;8543;2018-04-16 22:38:49:809
1.292;-9.318;-6.5;-0.863;-9.459;-2.44;1.311;0.659;-2.113;0.143;-0.183;-0.93;-13.5;0.1;24.9;60.92;8552;2018-04-16 22:38:49:818
-1.263;-8.195;-0.99;-0.83;-9.472;-2.399;1.278;0.673;-2.155;0.42;-0.729;-0.574;-13.5;0.1;25.0;60.92;8562;2018-04-16 22:38:49:828
-1.263;-8.195;-0.99;-0.83;-9.472;-2.399;1.278;0.673;-2.155;0.619;-0.469;0.065;-13.5;0.1;25.0;60.92;8572;2018-04-16 22:38:49:838
-4.075;-6.869;-1.608;-0.836;-9.504;-2.27;-3.239;2.635;0.662;0.619;-0.469;0.065;-13.4;0.2;25.1;60.92;8582;2018-04-16 22:38:49:848
-4.654;-9.979;0.33;-0.936;-9.517;-2.17;-3.718;-0.462;2.501;0.457;-0.501;0.314;-13.3;0.3;25.0;60.92;8592;2018-04-16 22:38:49:858
-4.654;-9.979;0.33;-0.936;-9.517;-2.17;-3.718;-0.462;2.501;0.528;-0.403;0.544;-13.3;0.3;25.0;60.92;8602;2018-04-16 22:38:49:868
-4.654;-9.979;0.33;-0.936;-9.517;-2.17;-3.718;-0.462;2.501;0.497;-0.293;0.682;-13.3;0.3;25.0;60.92;8612;2018-04-16 22:38:49:878
-5.906;-15.112;-3.746;-1.074;-9.528;-2.059;-4.833;-5.585;-1.686;0.497;-0.293;0.682;-13.1;0.5;25.1;60.92;8623;2018-04-16 22:38:49:889
-6.402;-17.323;-7.391;-1.142;-9.52;-2.058;-5.26;-7.803;-5.333;0.032;0.158;0.688;-13.1;0.6;25.2;60.92;8632;2018-04-16 22:38:49:898
-6.402;-17.323;-7.391;-1.142;-9.52;-2.058;-5.26;-7.803;-5.333;-0.643;0.8;0.602;-13.1;0.6;25.2;60.92;8642;2018-04-16 22:38:49:908
-4.323;-12.167;0.377;-1.178;-9.476;-2.231;-3.145;-2.691;2.608;-0.897;1.313;0.291;-12.9;0.9;25.3;60.92;8652;2018-04-16 22:38:49:918
-4.586;-7.551;3.303;-1.178;-9.476;-2.231;-3.145;-2.691;2.608;-0.172;1.957;-0.204;-12.9;0.9;25.3;60.92;8662;2018-04-16 22:38:49:928
-4.586;-7.551;3.303;-1.07;-9.482;-2.261;-3.155;3.503;3.889;-0.172;1.957;-0.204;-12.8;1.1;25.5;60.92;8672;2018-04-16 22:38:49:938
-3.694;-4.895;0.126;-1.07;-9.482;-2.261;-3.155;3.503;3.889;0.529;1.734;-0.062;-12.8;1.1;25.5;60.92;8681;2018-04-16 22:38:49:947
-3.482;-4.454;-0.745;-1.015;-9.507;-2.181;-2.468;5.053;1.437;0.677;1.377;0.115;-12.8;1.4;25.5;60.92;8692;2018-04-16 22:38:49:958
-3.482;-4.454;-0.745;-1.015;-9.507;-2.181;-2.468;5.053;1.437;0.677;1.377;0.115;-12.8;1.4;25.5;60.92;8702;2018-04-16 22:38:49:968
-3.462;-5.847;0.736;-1.066;-9.533;-2.039;-2.397;3.686;2.775;0.881;0.768;0.568;-12.8;1.8;25.5;60.92;8712;2018-04-16 22:38:49:978
-3.478;-7.412;0.697;-1.118;-9.541;-1.973;-2.359;2.128;2.67;0.858;0.828;0.782;-12.9;1.9;25.5;60.92;8721;2018-04-16 22:38:49:987
-3.478;-7.412;0.697;-1.118;-9.541;-1.973;-2.359;2.128;2.67;0.858;0.828;0.782;-12.9;1.9;25.5;60.92;8732;2018-04-16 22:38:49:998
-4.284;-10.647;0.406;-1.278;-9.538;-1.889;-3.006;-1.109;2.295;0.36;0.954;1.007;-13.0;2.3;25.4;60.92;8742;2018-04-16 22:38:50:008
-4.051;-11.787;0.298;-1.428;-9.51;-1.921;-2.623;-2.277;2.219;0.062;0.897;1.002;-13.1;2.6;25.3;60.92;8752;2018-04-16 22:38:50:018
-4.051;-11.787;0.298;-1.428;-9.51;-1.921;-2.623;-2.277;2.219;-0.191;0.727;0.889;-13.1;2.6;25.3;60.92;8762;2018-04-16 22:38:50:028
-3.594;-11.399;0.078;-1.5;-9.492;-1.955;-2.094;-1.907;2.032;-0.291;-0.553;0.612;-13.2;2.8;25.2;60.92;8772;2018-04-16 22:38:50:038
-3.594;-11.399;0.078;-1.5;-9.492;-1.955;-2.094;-1.907;2.032;-0.291;-0.553;0.612;-13.2;2.8;25.2;56.73;8782;2018-04-16 22:38:50:048
-3.27;-10.107;-0.049;-1.652;-9.461;-1.984;-1.619;-0.646;1.935;-0.323;-1.133;0.619;-13.4;3.1;25.0;56.73;8791;2018-04-16 22:38:50:057
-2.57;-9.347;0.092;-1.652;-9.461;-1.984;-1.619;-0.646;1.935;-0.382;-1.663;0.777;-13.4;3.1;25.0;56.73;8802;2018-04-16 22:38:50:068
-1.784;-8.763;-0.172;-1.866;-9.42;-1.987;-0.181;0.522;1.929;-0.412;-1.785;0.81;-13.7;3.4;24.8;56.73;8812;2018-04-16 22:38:50:078
-1.784;-8.763;-0.172;-1.866;-9.42;-1.987;-0.181;0.522;1.929;-0.487;-2.002;0.77;-13.7;3.4;24.8;56.73;8822;2018-04-16 22:38:50:088
-1.445;-8.999;-0.142;-2.082;-9.373;-1.997;0.637;0.374;1.854;-0.487;-2.002;0.77;-13.8;3.6;24.7;56.73;8832;2018-04-16 22:38:50:098
-0.711;-9.261;0.223;-2.294;-9.339;-1.922;1.583;0.078;2.144;-0.07;-2.794;0.677;-13.9;3.9;24.7;56.73;8845;2018-04-16 22:38:50:111
-0.711;-9.261;0.223;-2.294;-9.339;-1.922;1.583;0.078;2.144;-0.07;-2.794;0.677;-13.9;3.9;24.7;56.73;8851;2018-04-16 22:38:50:117
-0.711;-9.261;0.223;-2.294;-9.339;-1.922;1.583;0.078;2.144;-0.07;-2.794;0.677;-13.9;3.9;24.7;56.73;8862;2018-04-16 22:38:50:128
0.028;-9.625;0.685;-2.502;-9.36;-1.514;2.529;-0.264;2.199;1.483;-3.637;0.486;-13.9;4.2;24.7;56.73;8871;2018-04-16 22:38:50:137
-1.052;-10.319;0.54;-2.502;-9.36;-1.514;2.529;-0.264;2.199;1.688;-3.31;0.169;-13.9;4.2;24.7;56.73;8882;2018-04-16 22:38:50:148
-1.052;-10.319;0.54;-2.613;-9.396;-1.028;1.311;-0.948;1.528;1.688;-3.31;0.169;-13.7;4.6;24.8;56.73;8893;2018-04-16 22:38:50:159
-0.997;-9.531;0.63;-2.639;-9.408;-0.828;1.642;-0.123;1.458;1.527;-2.677;0.155;-13.6;4.8;24.8;56.73;8902;2018-04-16 22:38:50:168
-0.34;-8.011;1.584;-2.679;-9.422;-0.468;2.339;1.411;2.052;1.401;-1.734;0.095;-12.7;5.3;25.0;56.73;8912;2018-04-16 22:38:50:178
-0.34;-8.011;1.584;-2.679;-9.422;-0.468;2.339;1.411;2.052;1.475;-0.723;-0.022;-12.7;5.3;25.0;56.73;8923;2018-04-16 22:38:50:189
-0.327;-8.056;0.958;-2.669;-9.431;-0.308;2.343;1.375;1.266;1.483;-0.167;-0.098;-11.8;6.2;25.3;56.73;8932;2018-04-16 22:38:50:198
-0.327;-8.056;0.958;-2.669;-9.431;-0.308;2.343;1.375;1.266;1.483;-0.167;-0.098;-11.8;6.2;25.3;56.73;8942;2018-04-16 22:38:50:208
-1.025;-8.976;-0.017;-2.608;-9.452;-0.138;1.583;0.477;0.121;1.148;1.517;-0.316;-11.1;6.5;25.2;56.73;8952;2018-04-16 22:38:50:218
-1.025;-8.976;-0.017;-2.608;-9.452;-0.138;1.583;0.477;0.121;0.863;2.061;-0.253;-11.1;6.5;25.2;56.73;8961;2018-04-16 22:38:50:227
-1.496;-9.378;-0.127;-2.549;-9.469;-0.08;1.053;0.091;-0.047;0.863;2.061;-0.253;-10.7;7.7;24.9;56.73;8972;2018-04-16 22:38:50:238
-1.496;-9.378;-0.127;-2.549;-9.469;-0.08;1.053;0.091;-0.047;0.874;2.175;-0.176;-10.7;7.7;24.9;56.73;8982;2018-04-16 22:38:50:248
-1.884;-9.688;-0.266;-2.505;-9.481;-0.003;0.621;-0.207;-0.263;1.082;2.067;-0.188;-11.1;8.0;25.1;56.73;8992;2018-04-16 22:38:50:258
-2.138;-9.835;-0.828;-2.505;-9.481;-0.003;0.621;-0.207;-0.263;1.392;1.68;-0.167;-11.1;8.0;25.1;56.73;9002;2018-04-16 22:38:50:268
-2.138;-9.835;-0.828;-2.48;-9.486;0.174;0.381;-0.302;-1.223;1.392;1.68;-0.167;-11.3;8.8;25.3;56.73;9012;2018-04-16 22:38:50:278
-1.988;-9.512;-1.324;-2.48;-9.486;0.174;0.381;-0.302;-1.223;1.373;1.003;-0.032;-11.3;8.8;25.3;56.73;9022;2018-04-16 22:38:50:288
-1.988;-9.512;-1.324;-2.481;-9.481;0.368;0.423;0.186;-1.777;1.267;0.616;0.01;-11.2;9.5;25.0;56.73;9032;2018-04-16 22:38:50:298
-2.167;-9.075;-1.374;-2.481;-9.481;0.368;0.423;0.186;-1.777;1.185;0.204;0.057;-11.2;9.5;25.0;56.73;9042;2018-04-16 22:38:50:308
-2.301;-8.948;-1.251;-2.496;-9.466;0.576;0.195;0.518;-1.827;1.161;-0.227;0.092;-11.4;9.8;25.1;56.73;9052;2018-04-16 22:38:50:318
-2.301;-8.948;-1.251;-2.496;-9.466;0.576;0.195;0.518;-1.827;1.241;-0.809;0.122;-11.4;9.8;25.1;56.73;9062;2018-04-16 22:38:50:328
-2.902;-9.306;-0.725;-2.513;-9.442;0.839;-0.389;0.136;-1.565;1.384;-1.13;0.176;-11.4;10.0;24.3;56.73;9071;2018-04-16 22:38:50:337
-3.115;-9.538;-0.52;-2.534;-9.403;1.151;-0.531;-0.093;-1.669;1.437;-1.114;0.219;-11.1;10.6;24.0;56.73;9082;2018-04-16 22:38:50:348
-3.115;-9.419;-0.624;-2.534;-9.403;1.151;-0.531;-0.093;-1.669;1.437;-1.114;0.219;-11.1;10.6;24.0;56.73;9092;2018-04-16 22:38:50:358
-2.892;-9.419;-0.624;-2.534;-9.403;1.151;-0.531;-0.093;-1.669;1.437;-1.114;0.219;-11.1;10.6;24.0;58.19;9102;2018-04-16 22:38:50:368
-2.571;-9.316;-0.798;-2.57;-9.358;1.412;-0.001;0.042;-2.211;1.24;-0.487;0.265;-10.6;11.8;24.4;58.19;9112;2018-04-16 22:38:50:378
-2.571;-9.316;-0.798;-2.57;-9.358;1.412;-0.001;0.042;-2.211;1.01;0.018;0.263;-10.6;11.8;24.4;58.19;9123;2018-04-16 22:38:50:389
-1.832;-9.414;-1.233;-2.626;-9.323;1.536;0.795;-0.091;-2.769;0.768;0.531;0.243;-10.5;12.5;24.3;58.19;9132;2018-04-16 22:38:50:398
-1.429;-9.598;-1.522;-2.652;-9.314;1.545;1.223;-0.285;-3.067;0.566;0.944;0.192;-10.3;12.4;24.4;58.19;9142;2018-04-16 22:38:50:408
-1.429;-9.598;-1.522;-2.652;-9.314;1.545;1.223;-0.285;-3.067;0.566;0.944;0.192;-10.3;12.4;24.4;58.19;9152;2018-04-16 22:38:50:418
-1.073;-10.246;-1.851;-2.7;-9.303;1.528;1.627;-0.943;-3.379;0.241;1.168;0.049;-10.2;12.9;24.1;58.19;9162;2018-04-16 22:38:50:428
-1.012;-10.481;-1.765;-2.717;-9.302;1.505;1.705;-1.179;-3.269;0.064;0.987;0.009;-10.6;13.4;23.5;58.19;9172;2018-04-16 22:38:50:438
-1.012;-10.481;-1.765;-2.717;-9.302;1.505;1.705;-1.179;-3.269;-0.177;0.241;0.022;-10.6;13.4;23.5;58.19;9182;2018-04-16 22:38:50:448
-0.59;-10.336;-1.088;-2.729;-9.307;1.449;2.138;-1.028;-2.537;-0.177;0.241;0.022;-10.7;13.8;23.3;58.19;9192;2018-04-16 22:38:50:458
-0.59;-10.336;-1.088;-2.729;-9.307;1.449;2.138;-1.028;-2.537;-0.033;-0.397;-0.055;-10.7;13.8;23.3;58.19;9202;2018-04-16 22:38:50:468
-0.571;-10.564;-0.017;-2.709;-9.314;1.444;2.138;-1.251;-1.461;-0.033;-0.397;-0.055;-11.1;14.3;22.7;58.19;9212;2018-04-16 22:38:50:478
-0.571;-11.181;0.625;-2.667;-9.321;1.473;1.759;-1.86;-0.848;0.04;-0.393;-0.187;-11.2;14.1;22.8;58.19;9223;2018-04-16 22:38:50:489
-0.909;-11.181;0.625;-2.667;-9.321;1.473;1.759;-1.86;-0.848;0.04;-0.393;-0.187;-11.2;14.1;22.8;58.19;9232;2018-04-16 22:38:50:498
-0.886;-11.405;0.566;-2.667;-9.321;1.473;1.759;-1.86;-0.848;0.064;-0.221;-0.231;-11.0;14.3;23.1;58.19;9244;2018-04-16 22:38:50:510
-0.886;-11.405;0.566;-2.618;-9.332;1.495;1.943;-2.059;-1.217;0.064;-0.221;-0.231;-11.0;14.3;23.1;58.19;9252;2018-04-16 22:38:50:518
-0.315;-11.563;-0.798;-2.618;-9.332;1.495;1.943;-2.059;-1.217;0.149;0.133;-0.286;-11.0;14.3;23.1;58.19;9262;2018-04-16 22:38:50:528
-0.315;-11.984;-1.835;-2.563;-9.345;1.508;2.268;-2.329;-2.656;0.09;0.205;-0.347;-11.3;14.4;23.0;58.19;9272;2018-04-16 22:38:50:538
-0.45;-11.984;-1.835;-2.563;-9.345;1.508;2.268;-2.329;-2.656;-0.214;0.18;-0.439;-11.3;14.4;23.0;58.19;9283;2018-04-16 22:38:50:549
-0.697;-12.31;-2.29;-2.485;-9.377;1.441;1.788;-2.933;-3.731;-0.505;0.09;-0.467;-11.5;14.8;22.6;58.19;9293;2018-04-16 22:38:50:559
-0.697;-12.901;-2.579;-2.386;-9.429;1.252;1.542;-3.472;-3.831;-1.216;-0.25;-0.518;-11.7;15.2;22.4;58.19;9302;2018-04-16 22:38:50:568
-0.844;-12.901;-2.579;-2.386;-9.429;1.252;1.542;-3.472;-3.831;-1.613;-0.502;-0.593;-11.7;15.2;22.4;58.19;9312;2018-04-16 22:38:50:578
-0.844;-12.901;-2.579;-2.386;-9.429;1.252;1.542;-3.472;-3.831;-1.613;-0.502;-0.593;-11.7;15.2;22.4;58.19;9322;2018-04-16 22:38:50:588
-1.863;-12.566;-0.634;-2.252;-9.499;0.936;0.389;-3.067;-1.57;-1.946;-0.683;-0.66;-11.8;15.5;22.2;58.19;9332;2018-04-16 22:38:50:598
-1.863;-12.566;-0.634;-2.252;-9.499;0.936;0.389;-3.067;-1.57;-1.946;-0.683;-0.66;-11.8;15.5;22.2;58.19;9344;2018-04-16 22:38:50:610
-2.838;-11.769;0.86;-2.111;-9.562;0.538;-0.728;-2.207;0.321;-2.263;-0.711;-0.695;-11.9;15.7;22.0;58.19;9352;2018-04-16 22:38:50:618
-2.838;-11.769;0.86;-2.111;-9.562;0.538;-0.728;-2.207;0.321;-2.263;-0.711;-0.695;-11.9;15.7;22.0;58.19;9362;2018-04-16 22:38:50:628
-4.671;-10.239;2.668;-1.979;-9.605;0.059;-2.692;-0.634;2.609;-2.528;0.836;-0.639;-11.9;15.8;22.1;58.19;9372;2018-04-16 22:38:50:638
-4.671;-10.239;2.668;-1.979;-9.605;0.059;-2.692;-0.634;2.609;-2.528;0.836;-0.639;-11.9;15.8;22.1;58.19;9382;2018-04-16 22:38:50:648
