sep=;
acc_x;acc_y;acc_z;grav_x;grav_y;grav_z;lin_acc_x;lin_acc_y;lin_acc_z;gyro_x;gyro_y;gyro_z;mag_x;mag_y;mag_z;sound_lvl;time_ms;date_time
-0.445;2.374;9.422;-0.949;2.781;9.356;0.482;-0.612;0.109;-0.382;-0.22;-0.571;-0.5;-35.5;12.3;50.3;20;2018-04-16 22:33:42:825
-0.613;1.941;9.36;-0.942;2.759;9.363;0.329;-0.819;-0.003;-0.159;-0.211;-0.497;-0.2;-35.6;12.3;50.3;29;2018-04-16 22:33:42:834
-0.613;1.941;9.36;-0.942;2.759;9.363;0.329;-0.819;-0.003;0.205;-0.43;-0.403;-0.2;-35.6;12.3;50.3;39;2018-04-16 22:33:42:844
-0.965;2.164;8.492;-0.888;2.782;9.362;-0.077;-0.618;-0.87;0.253;-0.486;-0.357;0.0;-35.6;12.1;50.3;49;2018-04-16 22:33:42:854
-0.713;2.462;8.325;-0.85;2.799;9.36;0.137;-0.337;-1.035;0.122;-0.432;-0.357;0.1;-35.7;12.0;50.3;59;2018-04-16 22:33:42:864
-0.248;2.709;8.466;-0.85;2.799;9.36;0.137;-0.337;-1.035;0.122;-0.432;-0.357;0.1;-35.7;12.0;50.3;69;2018-04-16 22:33:42:874
-0.232;2.711;8.418;-0.804;2.793;9.366;0.572;-0.081;-0.948;-0.042;-0.323;-0.397;0.4;-35.7;11.9;50.3;79;2018-04-16 22:33:42:884
-0.232;2.711;8.418;-0.804;2.793;9.366;0.572;-0.081;-0.948;-0.042;-0.323;-0.397;0.4;-35.7;11.9;50.3;90;2018-04-16 22:33:42:895
-0.117;2.58;8.12;-0.787;2.757;9.378;0.669;-0.178;-1.258;-0.194;-0.202;-0.453;0.7;-35.8;11.9;50.3;100;2018-04-16 22:33:42:905
-0.117;2.58;8.12;-0.787;2.757;9.378;0.669;-0.178;-1.258;-0.194;-0.202;-0.453;0.7;-35.8;11.9;50.3;110;2018-04-16 22:33:42:915
-0.168;2.224;8.562;-0.773;2.694;9.398;0.541;-0.617;-0.671;-0.291;-0.206;-0.481;0.8;-35.8;11.9;50.3;120;2018-04-16 22:33:42:925
-0.353;1.763;9.048;-0.773;2.694;9.398;0.541;-0.617;-0.671;-0.274;-0.184;-0.434;1.1;-35.8;11.8;50.3;130;2018-04-16 22:33:42:935
-0.353;1.763;9.048;-0.756;2.639;9.415;0.396;-1.044;-0.129;-0.203;-0.195;-0.375;1.1;-35.8;11.8;50.3;140;2018-04-16 22:33:42:945
-0.485;1.73;9.242;-0.756;2.639;9.415;0.396;-1.044;-0.129;-0.119;-0.217;-0.304;1.4;-35.8;11.6;50.3;150;2018-04-16 22:33:42:955
-0.485;1.73;9.242;-0.724;2.612;9.425;0.201;-0.54;-0.604;-0.119;-0.217;-0.304;1.4;-35.8;11.6;50.3;160;2018-04-16 22:33:42:965
-0.407;2.398;8.636;-0.724;2.612;9.425;0.201;-0.54;-0.604;-0.101;-0.293;-0.199;1.6;-35.8;11.6;50.3;170;2018-04-16 22:33:42:975
-0.043;2.401;8.878;-0.678;2.582;9.436;0.635;-0.181;-0.558;-0.172;-0.285;-0.225;1.9;-35.9;11.5;50.3;180;2018-04-16 22:33:42:985
-0.043;2.401;8.878;-0.678;2.582;9.436;0.635;-0.181;-0.558;-0.241;-0.247;-0.299;1.9;-35.9;11.5;50.3;190;2018-04-16 22:33:42:995
-0.065;2.389;9.011;-0.642;2.533;9.452;0.578;-0.144;-0.441;-0.268;-0.228;-0.321;2.1;-35.9;11.5;50.32;200;2018-04-16 22:33:43:005
-0.377;2.168;9.126;-0.642;2.533;9.452;0.578;-0.144;-0.441;-0.285;-0.32;-0.358;2.2;-36.0;11.4;50.32;209;2018-04-16 22:33:43:014
-0.377;2.168;9.126;-0.602;2.473;9.471;0.205;-0.348;-0.325;-0.285;-0.32;-0.358;2.2;-36.0;11.4;50.32;219;2018-04-16 22:33:43:024
-0.485;1.979;9.002;-0.602;2.473;9.471;0.205;-0.348;-0.325;-0.259;-0.4;-0.341;2.5;-36.0;11.3;50.32;229;2018-04-16 22:33:43:034
-0.291;1.82;8.857;-0.529;2.421;9.488;0.19;-0.601;-0.612;-0.15;-0.702;-0.298;2.5;-36.0;11.3;50.32;240;2018-04-16 22:33:43:045
-0.291;1.82;8.857;-0.529;2.421;9.488;0.19;-0.601;-0.612;-0.039;-0.897;-0.29;2.7;-36.0;11.2;50.32;249;2018-04-16 22:33:43:054
0.091;1.796;8.569;-0.371;2.411;9.498;0.462;-0.616;-0.93;-0.039;-0.897;-0.29;2.7;-36.0;11.2;50.32;259;2018-04-16 22:33:43:064
0.564;2.046;8.31;-0.371;2.411;9.498;0.462;-0.616;-0.93;0.071;-1.093;-0.291;2.9;-36.0;11.2;50.32;269;2018-04-16 22:33:43:074
0.564;2.046;8.31;-0.371;2.411;9.498;0.462;-0.616;-0.93;0.071;-1.093;-0.291;2.9;-36.0;11.2;50.32;280;2018-04-16 22:33:43:085
0.674;2.028;8.357;-0.136;2.436;9.498;0.81;-0.408;-1.141;0.166;-1.405;-0.33;3.1;-36.0;11.0;50.32;290;2018-04-16 22:33:43:095
1.167;1.695;8.747;0.166;2.48;9.487;1.001;-0.784;-0.739;0.257;-1.751;-0.409;3.4;-35.9;10.9;50.32;299;2018-04-16 22:33:43:104
1.167;1.695;8.747;0.166;2.48;9.487;1.001;-0.784;-0.739;0.257;-1.751;-0.409;3.4;-35.9;10.9;50.32;310;2018-04-16 22:33:43:115
0.873;1.106;8.272;0.529;2.562;9.451;0.463;-1.629;-1.382;0.43;-1.966;-0.346;3.5;-35.9;10.9;50.32;320;2018-04-16 22:33:43:125
0.873;1.106;8.272;0.529;2.562;9.451;0.463;-1.629;-1.382;0.43;-1.966;-0.346;3.5;-35.9;10.9;50.32;330;2018-04-16 22:33:43:135
2.636;-0.54;4.599;0.727;2.613;9.424;1.909;-3.153;-4.825;0.606;-2.382;-0.073;3.8;-35.9;10.8;50.32;340;2018-04-16 22:33:43:145
2.686;-0.042;4.946;1.326;2.722;9.327;1.36;-2.764;-4.381;0.67;-3.382;0.27;4.1;-35.9;10.9;50.32;349;2018-04-16 22:33:43:154
2.686;-0.042;4.946;1.326;2.722;9.327;1.36;-2.764;-4.381;0.67;-3.382;0.27;4.1;-35.9;10.9;50.32;360;2018-04-16 22:33:43:165
2.859;0.129;4.822;1.725;2.787;9.243;1.133;-2.657;-4.421;0.688;-3.815;0.329;4.2;-35.9;10.8;50.32;370;2018-04-16 22:33:43:175
2.859;0.845;5.127;1.725;2.787;9.028;1.66;-2.033;-3.901;0.542;-4.36;0.407;4.6;-35.9;10.6;50.32;380;2018-04-16 22:33:43:185
4.187;0.845;5.127;2.528;2.878;9.028;1.66;-2.033;-3.901;0.542;-4.36;0.407;4.6;-35.9;10.6;50.32;390;2018-04-16 22:33:43:195
5.2;1.261;5.989;3.342;2.9;8.752;1.858;-1.639;-2.762;0.165;-4.421;0.406;4.9;-35.8;10.4;50.32;399;2018-04-16 22:33:43:204
5.2;1.261;5.989;3.342;2.9;8.752;1.858;-1.639;-2.762;0.165;-4.421;0.406;4.9;-35.8;10.4;50.32;410;2018-04-16 22:33:43:215
5.2;1.261;5.989;3.342;2.9;8.752;1.858;-1.639;-2.762;0.165;-4.421;0.406;4.9;-35.8;10.4;50.32;420;2018-04-16 22:33:43:225
5.2;1.261;5.989;3.342;2.9;8.752;1.858;-1.639;-2.762;0.165;-4.421;0.406;4.9;-35.8;10.4;50.32;430;2018-04-16 22:33:43:235
4.736;0.53;6.024;3.679;2.883;8.621;1.057;-2.353;-2.597;-0.061;-4.134;0.364;5.1;-35.8;10.4;50.32;439;2018-04-16 22:33:43:244
4.736;0.53;6.024;3.679;2.883;8.621;1.057;-2.353;-2.597;-0.061;-4.134;0.364;5.1;-35.8;10.4;50.32;450;2018-04-16 22:33:43:255
-0.251;-2.351;4.445;5.069;2.579;7.989;-5.321;-4.93;-3.544;-0.634;-3.084;0.762;5.1;-35.8;10.4;50.32;459;2018-04-16 22:33:43:264
-0.213;-2.972;7.07;5.069;2.579;7.989;-5.321;-4.93;-3.544;-0.413;-3.87;1.58;6.0;-35.8;9.9;50.32;470;2018-04-16 22:33:43:275
-0.213;-2.972;7.07;5.747;2.341;7.593;-5.706;-5.023;0.474;-0.274;-4.017;1.908;6.3;-35.8;9.4;50.32;481;2018-04-16 22:33:43:286
1.67;-1.997;8.547;5.747;2.341;7.593;-5.706;-5.023;0.474;-0.274;-4.017;1.908;6.3;-35.8;9.4;50.32;490;2018-04-16 22:33:43:295
4.308;-2.436;7.415;6.417;2.02;7.135;-2.937;-4.195;0.571;0.319;-3.625;2.981;6.5;-35.8;8.9;50.32;503;2018-04-16 22:33:43:308
4.308;-2.436;7.415;6.417;2.02;7.135;-2.937;-4.195;0.571;0.319;-3.625;2.981;6.5;-35.8;8.9;50.32;509;2018-04-16 22:33:43:314
5.449;-3.129;7.554;6.699;1.826;6.926;-1.249;-4.955;0.628;0.334;-3.563;3.249;6.6;-35.8;8.5;50.32;519;2018-04-16 22:33:43:324
5.449;-3.129;7.554;6.699;1.826;6.926;-1.249;-4.955;0.628;0.334;-3.563;3.249;6.6;-35.8;8.5;50.32;530;2018-04-16 22:33:43:335
6.455;-3.3;7.722;7.236;1.365;6.477;-0.781;-4.666;1.246;0.203;-2.972;3.483;6.4;-36.0;7.4;51.39;540;2018-04-16 22:33:43:345
8.21;-2.449;8.948;7.236;1.365;6.477;-0.781;-4.666;1.246;0.461;-2.968;3.644;6.1;-36.3;7.0;51.39;550;2018-04-16 22:33:43:355
8.21;-2.449;8.948;7.902;0.594;5.777;0.698;-2.92;3.393;0.461;-2.968;3.644;6.1;-36.3;7.0;51.39;559;2018-04-16 22:33:43:364
9.275;-2.125;9.476;7.902;0.594;5.777;0.698;-2.92;3.393;0.551;-2.981;3.698;5.5;-36.4;6.4;51.39;569;2018-04-16 22:33:43:374
10.576;-1.911;9.579;8.241;0.061;5.316;2.002;-1.96;4.272;0.578;-2.746;3.669;4.6;-36.8;6.4;51.39;580;2018-04-16 22:33:43:385
10.576;-1.911;9.579;8.241;0.061;5.316;2.002;-1.96;4.272;0.578;-2.746;3.669;4.6;-36.8;6.4;51.39;591;2018-04-16 22:33:43:396
12.453;-2.263;10.138;8.473;-0.482;4.913;3.601;-1.686;4.936;0.602;-2.34;3.593;2.5;-37.0;5.8;51.39;600;2018-04-16 22:33:43:405
13.582;-2.617;10.567;8.473;-0.482;4.913;3.601;-1.686;4.936;0.907;-2.125;3.544;1.4;-37.3;5.4;51.39;610;2018-04-16 22:33:43:415
13.582;-2.617;10.567;8.622;-0.999;4.564;5.495;-1.619;6.066;0.907;-2.125;3.544;1.4;-37.3;5.4;51.39;620;2018-04-16 22:33:43:425
15.535;-2.248;10.872;8.622;-0.999;4.564;5.495;-1.619;6.066;1.461;-2.055;3.499;-0.9;-37.0;4.6;51.39;630;2018-04-16 22:33:43:435
17.892;-0.844;10.484;8.716;-1.45;4.253;8.334;0.013;6.674;1.911;-2.021;3.428;-0.9;-37.0;4.6;51.39;642;2018-04-16 22:33:43:447
17.892;-0.844;10.484;8.745;-1.618;4.133;9.615;1.153;5.922;2.373;-1.938;3.255;-2.2;-36.6;6.0;51.39;650;2018-04-16 22:33:43:455
18.95;0.444;8.491;8.745;-1.618;4.133;9.615;1.153;5.922;2.373;-1.938;3.255;-2.2;-36.6;6.0;51.39;660;2018-04-16 22:33:43:465
18.774;1.317;6.838;8.805;-1.861;3.895;10.018;2.943;3.478;2.994;-1.944;2.733;-3.4;-36.6;6.7;51.39;670;2018-04-16 22:33:43:475
18.774;1.317;6.838;8.805;-1.861;3.895;10.018;2.943;3.478;2.994;-1.944;2.733;-3.4;-36.6;6.7;51.39;680;2018-04-16 22:33:43:485
18.633;1.507;6.194;8.849;-1.915;3.769;9.784;3.422;2.425;3.457;-2.049;2.068;-5.3;-36.1;8.4;51.39;690;2018-04-16 22:33:43:495
18.146;1.921;3.093;8.949;-1.891;3.536;9.196;3.812;-0.443;3.701;-2.115;1.181;-5.7;-35.6;11.3;51.39;700;2018-04-16 22:33:43:505
18.146;1.921;3.093;8.949;-1.891;3.536;9.196;3.812;-0.443;3.701;-2.115;1.181;-5.7;-35.6;11.3;51.39;710;2018-04-16 22:33:43:515
18.586;4.173;1.35;9.102;-1.718;3.222;9.469;6.206;-2.123;3.567;-2.524;0.149;-6.2;-34.9;10.6;51.39;720;2018-04-16 22:33:43:525
18.053;5.44;-0.329;9.102;-1.718;3.222;9.469;6.206;-2.123;3.445;-2.688;-0.519;-6.4;-34.8;14.0;51.39;730;2018-04-16 22:33:43:535
17.21;5.489;-1.439;9.294;-1.353;2.82;7.915;6.842;-4.259;3.216;-2.814;-1.213;-6.4;-34.8;14.0;51.39;739;2018-04-16 22:33:43:544
15.912;5.125;-1.8;9.387;-1.125;2.605;6.525;6.25;-4.406;2.908;-2.917;-1.841;-5.0;-33.0;15.8;51.39;750;2018-04-16 22:33:43:555
15.912;5.125;-1.8;9.387;-1.125;2.605;6.525;6.25;-4.406;1.862;-2.116;-2.58;-5.0;-33.0;15.8;51.39;760;2018-04-16 22:33:43:565
11.303;4.074;-4.175;9.545;-0.557;2.181;1.758;4.631;-6.357;1.862;-2.116;-2.58;-3.2;-31.5;16.4;51.39;769;2018-04-16 22:33:43:574
11.303;4.074;-4.175;9.545;-0.557;2.181;1.758;4.631;-6.357;1.862;-2.116;-2.58;-3.2;-31.5;16.4;51.39;779;2018-04-16 22:33:43:584
9.209;3.193;-4.918;9.584;-0.257;2.062;-0.375;3.45;-6.98;1.081;-1.175;-2.623;-3.1;-32.0;15.9;51.39;790;2018-04-16 22:33:43:595
7.538;2.418;-2.333;9.602;0.183;1.983;-2.003;2.248;-5.313;-0.429;-0.153;-2.16;-1.3;-31.3;18.1;51.39;800;2018-04-16 22:33:43:605
7.538;2.418;-2.333;9.602;0.183;1.983;-2.003;2.248;-5.313;-0.951;0.125;-1.78;-1.3;-31.3;18.1;51.39;810;2018-04-16 22:33:43:615
7.829;2.613;0.854;9.586;0.487;2.013;-1.742;2.051;-1.774;-0.951;0.125;-1.78;-1.4;-31.5;17.1;51.39;820;2018-04-16 22:33:43:625
7.527;2.96;2.332;9.586;0.487;2.013;-1.742;2.051;-1.774;-0.733;0.269;-1.615;-1.2;-32.0;16.1;51.39;830;2018-04-16 22:33:43:635
7.527;2.96;2.332;9.555;0.766;2.069;-2.179;2.211;0.363;-0.238;0.194;-1.506;-1.2;-32.0;16.1;51.39;839;2018-04-16 22:33:43:644
6.723;2.795;2.332;9.542;0.893;2.079;-2.819;1.902;0.253;-0.043;0.119;-1.47;-0.6;-33.6;18.1;51.39;850;2018-04-16 22:33:43:655
6.723;2.795;2.332;9.542;0.893;2.079;-2.819;1.902;0.253;-0.043;0.119;-1.47;-0.6;-33.6;18.1;51.39;860;2018-04-16 22:33:43:665
4.875;1.226;2.072;9.52;1.154;2.05;-4.646;0.072;0.022;0.722;-0.166;-1.14;-0.3;-32.6;17.4;50.03;870;2018-04-16 22:33:43:675
3.406;-0.334;1.098;9.52;1.154;2.05;-4.646;0.072;0.022;1.212;-0.398;-0.512;0.0;-31.8;16.7;50.03;880;2018-04-16 22:33:43:685
3.406;-0.334;1.098;9.523;1.301;1.948;-5.743;-1.671;-0.483;1.212;-0.398;-0.512;0.0;-31.8;16.7;50.03;890;2018-04-16 22:33:43:695
6.935;0.116;0.782;9.536;1.31;1.876;-2.601;-1.194;-1.094;1.632;-0.475;0.239;0.0;-31.3;17.8;50.03;900;2018-04-16 22:33:43:705
6.935;0.116;0.782;9.536;1.31;1.876;-2.601;-1.194;-1.094;1.632;-0.475;0.239;0.0;-31.3;17.8;50.03;910;2018-04-16 22:33:43:715
8.851;-0.818;-1.118;9.558;1.332;1.746;-0.706;-2.15;-2.864;1.673;-0.454;0.166;0.0;-31.0;17.9;50.03;920;2018-04-16 22:33:43:725
8.851;-0.818;-1.118;9.558;1.332;1.746;-0.706;-2.15;-2.864;1.437;-0.045;0.044;0.0;-31.0;17.9;50.03;930;2018-04-16 22:33:43:735
8.884;-0.198;0.333;9.56;1.366;1.705;0.398;-1.34;-1.675;1.456;0.06;0.042;0.4;-31.8;19.0;50.03;940;2018-04-16 22:33:43:745
8.884;-0.198;0.333;9.56;1.366;1.705;0.398;-1.34;-1.675;1.456;0.06;0.042;0.4;-31.8;19.0;50.03;950;2018-04-16 22:33:43:755
12.008;1.39;-2.017;9.563;1.445;1.622;2.353;2.183;-5.422;1.48;-0.183;-0.145;0.1;-30.8;19.5;50.03;960;2018-04-16 22:33:43:765
12.008;1.39;-2.017;9.563;1.445;1.622;2.353;2.183;-5.422;1.48;-0.183;-0.145;0.1;-30.8;19.5;50.03;970;2018-04-16 22:33:43:775
12.008;1.39;-2.017;9.563;1.445;1.622;2.353;2.183;-5.422;1.48;-0.183;-0.145;0.1;-30.8;19.5;50.03;980;2018-04-16 22:33:43:785
11.242;9.74;2.544;9.567;1.503;1.543;1.675;8.237;1.001;0.964;-0.765;-0.507;0.2;-30.5;20.2;50.03;990;2018-04-16 22:33:43:795
13.157;4.322;3.44;9.56;1.625;1.46;3.597;2.697;1.98;3.129;0.474;0.432;0.1;-29.6;20.7;50.03;1000;2018-04-16 22:33:43:805
13.066;2.683;0.418;9.56;1.625;1.46;3.597;2.697;1.98;3.381;-0.342;0.562;0.1;-29.6;20.7;50.03;1009;2018-04-16 22:33:43:814
13.066;2.683;0.418;9.56;1.625;1.46;3.597;2.697;1.98;3.381;-0.342;0.562;0.1;-29.6;20.7;50.03;1020;2018-04-16 22:33:43:825
12.457;2.355;0.445;9.588;1.619;1.272;2.869;0.736;-0.827;3.293;-0.775;0.447;0.1;-29.6;20.0;50.03;1029;2018-04-16 22:33:43:834
8.035;0.359;-0.176;9.588;1.619;1.272;2.869;0.736;-0.827;2.222;-0.608;-0.646;0.5;-28.9;21.0;50.03;1040;2018-04-16 22:33:43:845
8.035;0.359;-0.176;9.588;1.619;1.272;2.869;0.736;-0.827;2.222;-0.608;-0.646;0.5;-28.9;21.0;50.03;1050;2018-04-16 22:33:43:855
7.333;0.18;-0.108;9.606;1.785;0.836;-2.273;-1.605;-0.944;2.222;-0.608;-0.646;0.8;-28.5;21.1;50.03;1060;2018-04-16 22:33:43:865
7.333;0.18;-0.108;9.606;1.785;0.836;-2.273;-1.605;-0.944;2.222;-0.608;-0.646;0.8;-28.5;21.1;50.03;1070;2018-04-16 22:33:43:875
7.333;0.18;-0.108;9.606;1.785;0.836;-2.273;-1.605;-0.944;2.222;-0.608;-0.646;0.8;-28.5;21.1;50.03;1080;2018-04-16 22:33:43:885
3.873;0.362;-0.219;9.597;1.855;0.792;-5.724;-1.493;-1.011;1.04;0.17;0.028;1.5;-26.6;22.5;50.03;1090;2018-04-16 22:33:43:895
3.873;0.362;-0.219;9.597;1.855;0.792;-5.724;-1.493;-1.011;-0.401;-0.288;1.538;1.5;-26.6;22.5;50.03;1099;2018-04-16 22:33:43:904
3.724;-2.528;5.015;9.679;1.387;0.744;-5.955;-3.916;4.27;-0.401;-0.288;1.538;1.7;-25.3;23.5;50.03;1110;2018-04-16 22:33:43:915
3.724;-2.528;5.015;9.679;1.387;0.744;-5.955;-3.916;4.27;0.215;-1.133;2.549;1.7;-25.3;23.5;50.03;1120;2018-04-16 22:33:43:925
3.903;-1.331;4.709;9.754;0.836;0.572;-5.852;-2.167;4.138;0.441;-0.236;3.539;2.2;-24.8;23.9;50.03;1129;2018-04-16 22:33:43:934
3.699;-1.652;3.916;9.78;0.431;0.572;-6.081;-2.083;3.344;0.44;0.249;4.109;2.2;-24.8;23.9;50.03;1140;2018-04-16 22:33:43:945
3.67;-1.443;1.693;9.78;0.431;0.572;-6.081;-2.083;3.344;0.457;0.489;4.744;1.4;-24.5;24.6;50.03;1149;2018-04-16 22:33:43:954
3.67;-1.443;1.693;9.771;-0.5;0.667;-6.101;-0.943;1.026;0.334;0.564;5.421;1.4;-24.5;24.6;50.03;1159;2018-04-16 22:33:43:964
4.342;-2.243;-0.079;9.771;-0.5;0.667;-6.101;-0.943;1.026;0.204;0.396;6.127;-0.1;-24.3;24.7;48.32;1170;2018-04-16 22:33:43:975
5.264;-3.494;-2.527;9.631;-1.696;0.738;-5.046;-1.259;-1.933;0.098;-0.065;6.834;-0.1;-24.3;24.7;48.32;1180;2018-04-16 22:33:43:985
5.264;-3.494;-2.527;9.631;-1.696;0.738;-5.046;-1.259;-1.933;0.098;-0.065;6.834;-0.1;-24.3;24.7;48.32;1190;2018-04-16 22:33:43:995
5.725;-3.736;-2.956;9.504;-2.316;0.698;-3.779;-1.42;-3.654;0.061;-0.475;7.162;-1.3;-24.1;25.9;48.32;1199;2018-04-16 22:33:44:004
6.752;-5.225;-4.274;9.033;-3.808;0.271;-2.281;-1.417;-4.544;0.037;-2.889;8.252;-2.0;-23.7;25.6;48.32;1210;2018-04-16 22:33:44:015
5.683;-7.298;-2.404;9.033;-3.808;0.271;-2.281;-1.417;-4.544;0.14;-4.083;8.782;-2.0;-23.7;25.6;48.32;1220;2018-04-16 22:33:44:025
5.683;-7.298;-2.404;8.174;-5.396;-0.494;-2.89;-2.214;-1.316;0.393;-4.974;9.608;-2.1;-22.1;25.6;48.32;1230;2018-04-16 22:33:44:035
5.174;-7.949;-2.407;8.174;-5.396;-0.494;-2.89;-2.214;-1.316;0.393;-4.974;9.608;-2.1;-22.1;25.6;48.32;1240;2018-04-16 22:33:44:045
5.796;-7.298;2.23;6.819;-6.945;-1.197;-1.343;-0.854;1.552;0.941;-5.395;10.33;-2.3;-21.7;25.3;48.32;1249;2018-04-16 22:33:44:054
5.796;-7.298;2.23;5.908;-7.702;-1.393;-0.283;0.667;4.139;1.366;-4.625;10.635;-2.3;-21.7;25.3;48.32;1259;2018-04-16 22:33:44:064
5.223;-6.325;3.199;5.908;-7.702;-1.393;-0.283;0.667;4.139;1.952;-2.308;10.652;-2.4;-20.8;25.3;48.32;1270;2018-04-16 22:33:44:075
5.482;-5.582;1.596;4.084;-8.821;-1.292;0.693;2.666;4.119;1.952;-2.308;10.652;-2.4;-20.8;25.3;48.32;1280;2018-04-16 22:33:44:085
5.482;-5.582;1.596;4.084;-8.821;-1.292;0.693;2.666;4.119;2.275;0.271;10.364;-2.7;-19.6;26.8;48.32;1290;2018-04-16 22:33:44:095
6.127;-3.911;-0.261;2.246;-9.511;-0.82;3.881;5.6;0.559;2.283;1.437;9.843;-2.7;-19.6;26.8;48.32;1300;2018-04-16 22:33:44:105
4.654;-3.595;-1.932;2.246;-9.511;-0.82;3.881;5.6;0.559;2.06;2.134;9.068;-5.4;-16.6;26.5;48.32;1309;2018-04-16 22:33:44:114
4.654;-3.595;-1.932;0.503;-9.787;-0.366;3.883;6.497;-1.754;1.936;2.122;8.91;-5.4;-16.6;26.5;48.32;1320;2018-04-16 22:33:44:125
3.626;-2.349;-2.968;0.503;-9.787;-0.366;3.883;6.497;-1.754;1.936;2.122;8.91;-7.6;-13.3;25.6;48.32;1330;2018-04-16 22:33:44:135
1.798;-2.106;-3.124;-1.077;-9.747;-0.112;3.484;7.744;-2.615;1.167;1.365;7.924;-7.6;-13.3;25.6;48.32;1340;2018-04-16 22:33:44:145
1.798;-2.106;-3.124;-1.077;-9.747;-0.112;3.484;7.744;-2.615;0.496;-0.298;6.887;-9.3;-11.1;26.3;48.32;1350;2018-04-16 22:33:44:155
1.876;-0.991;-4.908;-2.44;-9.498;0.011;4.316;8.507;-4.919;0.496;-0.298;6.887;-9.3;-11.1;26.3;48.32;1360;2018-04-16 22:33:44:165
1.876;-0.991;-4.908;-2.44;-9.498;0.011;4.316;8.507;-4.919;0.496;-0.298;6.887;-9.8;-9.3;25.8;48.32;1370;2018-04-16 22:33:44:175
-11.631;-26.944;-3.354;-3.462;-9.175;0.077;-8.169;-17.769;-3.431;-1.036;-4.164;5.269;-9.8;-9.3;25.8;48.32;1380;2018-04-16 22:33:44:185
-11.056;-38.897;5.827;-3.462;-9.175;0.077;-8.169;-17.769;-3.431;-1.785;-6.359;4.403;-7.9;-7.3;29.0;48.32;1389;2018-04-16 22:33:44:194
-11.056;-38.897;5.827;-4.068;-8.921;0.206;-8.75;-29.685;7.313;-1.785;-6.359;4.403;-7.9;-7.3;29.0;48.32;1400;2018-04-16 22:33:44:205
-23.419;-38.167;17.922;-4.068;-8.921;0.206;-8.75;-29.685;7.313;-2.743;-4.931;-2.129;-5.8;-8.3;28.9;48.32;1410;2018-04-16 22:33:44:215
-10.554;-17.113;7.587;-3.703;-9.08;0.076;-9.839;-13.435;11.733;-1.929;-2.553;-1.831;-5.8;-8.3;28.9;48.32;1420;2018-04-16 22:33:44:225
-10.554;-17.113;7.587;-3.703;-9.08;0.076;-9.839;-13.435;11.733;-1.169;-0.881;-1.346;-4.1;-8.8;28.1;48.32;1429;2018-04-16 22:33:44:234
-5.224;-8.797;1.996;-3.462;-9.175;-0.07;-1.762;0.377;2.065;-1.169;-0.881;-1.346;-4.1;-8.8;28.1;48.32;1440;2018-04-16 22:33:44:245
-1.756;-2.982;-0.625;-3.462;-9.175;-0.07;-1.762;0.377;2.065;-0.925;-0.4;-0.887;-3.2;-8.9;29.5;48.32;1449;2018-04-16 22:33:44:254
-1.756;-2.982;-0.625;-3.311;-9.229;-0.203;2.117;7.33;-2.996;-0.842;-0.451;-0.787;-3.2;-8.9;29.5;48.32;1460;2018-04-16 22:33:44:265
-0.492;-0.262;-9.109;-3.311;-9.229;-0.203;2.117;7.33;-2.996;-0.018;-2.685;-0.784;-3.8;-10.3;28.2;56.64;1469;2018-04-16 22:33:44:274
-3.189;-3.837;-4.322;-3.178;-9.275;0.194;1.326;7.316;-5.876;1.23;-6.269;-0.713;-3.8;-10.3;28.2;56.64;1480;2018-04-16 22:33:44:285
-3.189;-3.837;-4.322;-3.178;-9.275;0.194;1.326;7.316;-5.876;1.686;-8.002;-0.345;-0.4;-8.3;28.2;56.64;1490;2018-04-16 22:33:44:295
-6.912;-9.301;-5.078;-3.024;-9.276;0.99;-3.888;-0.025;-6.068;1.484;-7.614;0.005;-0.4;-8.3;28.2;56.64;1500;2018-04-16 22:33:44:305
-8.15;-12.322;0.652;-3.024;-9.276;0.99;-3.888;-0.025;-6.068;0.591;-5.03;0.415;2.6;-8.7;26.6;56.64;1510;2018-04-16 22:33:44:315
-5.136;-9.493;3.849;-2.983;-9.241;1.372;-3.925;-2.058;0.986;-0.841;0.257;0.411;4.1;-8.3;28.1;56.64;1519;2018-04-16 22:33:44:324
-5.136;-9.493;3.849;-2.983;-9.241;1.372;-3.925;-2.058;0.986;-0.841;0.257;0.411;4.1;-8.3;28.1;56.64;1530;2018-04-16 22:33:44:335
-5.095;-9.233;5.684;-3.065;-9.251;1.094;-2.03;0.018;4.59;-1.168;2.542;0.117;6.6;-3.2;31.8;56.64;1539;2018-04-16 22:33:44:344
-4.257;-8.499;3.446;-3.065;-9.251;1.094;-2.03;0.018;4.59;-0.878;4.453;0.099;6.6;-3.2;31.8;56.64;1550;2018-04-16 22:33:44:355
-4.257;-8.499;3.446;-3.164;-9.258;0.667;-0.988;0.767;2.131;-0.878;4.453;0.099;4.8;-4.3;31.3;56.64;1560;2018-04-16 22:33:44:365
-4.057;-8.643;1.241;-3.164;-9.258;0.667;-0.988;0.767;2.131;-0.605;5.108;0.093;4.8;-4.3;31.3;56.64;1569;2018-04-16 22:33:44:374
-4.226;-9.236;-1.538;-3.241;-9.253;0.24;-0.98;0.277;-0.678;-0.479;5.147;0.134;3.6;-4.4;31.1;56.64;1580;2018-04-16 22:33:44:385
-4.226;-9.236;-1.538;-3.241;-9.253;0.24;-0.98;0.277;-0.678;-0.01;4.078;0.332;3.6;-4.4;31.1;56.64;1589;2018-04-16 22:33:44:394
-2.764;-8.209;-1.403;-3.309;-9.232;-0.027;0.544;1.023;-1.376;0.569;2.456;0.232;0.2;-4.3;31.8;56.64;1600;2018-04-16 22:33:44:405
-3.409;-8.468;-0.293;-3.309;-9.232;-0.027;0.544;1.023;-1.376;0.711;1.863;0.027;0.2;-4.3;31.8;56.64;1610;2018-04-16 22:33:44:415
-3.409;-8.468;-0.293;-3.331;-9.223;-0.05;-0.7;0.118;-0.18;0.733;1.538;0.098;-0.8;-4.3;31.5;56.64;1619;2018-04-16 22:33:44:424
-4.241;-9.687;-0.284;-3.331;-9.223;-0.05;-0.7;0.118;-0.18;0.717;1.238;0.249;-0.8;-4.3;31.5;56.64;1630;2018-04-16 22:33:44:435
-3.516;-9.55;-0.298;-3.364;-9.212;-0.009;-0.152;-0.339;-0.289;0.654;0.969;0.238;-0.9;-3.1;32.5;56.64;1639;2018-04-16 22:33:44:444
-3.272;-9.576;-0.194;-3.364;-9.212;-0.009;-0.152;-0.339;-0.289;0.562;0.718;0.173;-0.9;-3.1;32.5;56.64;1649;2018-04-16 22:33:44:454
-3.272;-9.576;-0.194;-3.396;-9.2;0.045;0.14;-0.372;-0.129;0.48;0.468;0.156;-1.4;-3.4;33.2;56.64;1660;2018-04-16 22:33:44:465
-3.048;-9.38;0.11;-3.396;-9.2;0.045;0.14;-0.372;-0.129;0.402;0.272;0.167;-1.4;-3.4;33.2;56.64;1670;2018-04-16 22:33:44:475
-2.935;-9.346;0.63;-3.423;-9.189;0.101;0.454;-0.135;0.318;0.323;0.16;0.183;-1.5;-3.4;32.9;56.64;1679;2018-04-16 22:33:44:484
-2.935;-9.346;0.63;-3.423;-9.189;0.101;0.454;-0.135;0.318;0.252;0.13;0.2;-1.5;-3.4;32.9;56.64;1690;2018-04-16 22:33:44:495
-2.723;-9.273;0.846;-3.454;-9.177;0.145;0.731;-0.096;0.702;0.202;0.143;0.193;-1.1;-3.1;33.1;56.64;1700;2018-04-16 22:33:44:505
-2.55;-9.026;0.772;-3.454;-9.177;0.145;0.731;-0.096;0.702;0.154;0.153;0.153;-1.1;-3.1;33.1;56.64;1710;2018-04-16 22:33:44:515
-2.55;-9.026;0.772;-3.477;-9.168;0.167;0.905;0.272;0.522;0.112;0.143;0.142;-0.7;-3.2;33.4;56.64;1720;2018-04-16 22:33:44:525
-2.429;-8.94;0.438;-3.477;-9.168;0.167;0.905;0.272;0.522;0.071;0.09;0.138;-0.7;-3.2;33.4;56.64;1730;2018-04-16 22:33:44:535
-2.683;-9.493;0.263;-3.494;-9.161;0.176;0.957;-0.081;0.097;0.071;0.09;0.138;-0.8;-3.1;32.2;56.64;1739;2018-04-16 22:33:44:544
-2.683;-9.493;0.263;-3.494;-9.161;0.176;0.957;-0.081;0.097;0.004;-0.068;0.089;-0.8;-3.1;32.2;56.64;1749;2018-04-16 22:33:44:554
-2.646;-9.784;0.277;-3.504;-9.157;0.184;0.858;-0.626;0.093;-0.024;-0.189;0.09;-0.8;-2.6;33.6;56.64;1759;2018-04-16 22:33:44:564
-2.898;-9.913;0.399;-3.504;-9.157;0.184;0.858;-0.626;0.093;-0.027;-0.357;0.031;-0.8;-2.6;33.6;56.64;1770;2018-04-16 22:33:44:575
-2.898;-9.913;0.399;-3.505;-9.157;0.205;0.554;-0.657;0.197;-0.006;-0.443;0.001;-0.6;-3.1;33.2;67.79;1780;2018-04-16 22:33:44:585
-2.838;-9.143;0.482;-3.505;-9.157;0.205;0.554;-0.657;0.197;0.028;-0.507;-0.032;-0.6;-3.1;33.2;67.79;1790;2018-04-16 22:33:44:595
-3.199;-9.109;0.095;-3.494;-9.16;0.247;0.295;0.051;-0.152;0.088;-0.555;-0.024;-0.2;-2.5;33.9;67.79;1800;2018-04-16 22:33:44:605
-3.199;-9.109;0.095;-3.494;-9.16;0.247;0.295;0.051;-0.152;0.319;-0.977;-0.048;-0.2;-2.5;33.9;67.79;1810;2018-04-16 22:33:44:615
-3.784;-8.897;-1.642;-3.48;-9.161;0.363;-0.304;0.264;-2.006;0.637;-1.51;-0.068;-0.2;-2.2;33.7;67.79;1820;2018-04-16 22:33:44:625
-4.067;-8.886;-1.287;-3.48;-9.161;0.363;-0.304;0.264;-2.006;0.788;-1.655;-0.037;-0.2;-2.2;33.7;67.79;1830;2018-04-16 22:33:44:635
-4.067;-8.886;-1.287;-3.463;-9.155;0.601;-0.577;0.293;-1.726;0.804;-1.493;-0.011;-0.1;-2.4;33.2;67.79;1839;2018-04-16 22:33:44:644
-3.873;-8.903;-0.536;-3.463;-9.155;0.601;-0.577;0.293;-1.726;0.679;-1.027;-0.007;-0.1;-2.4;33.2;67.79;1849;2018-04-16 22:33:44:654
-3.704;-9.165;0.133;-3.453;-9.146;0.777;-0.295;0.111;-0.82;0.44;-0.318;-0.017;-0.6;-2.4;33.3;67.79;1860;2018-04-16 22:33:44:665
-3.704;-9.165;0.133;-3.453;-9.146;0.777;-0.295;0.111;-0.82;0.44;-0.318;-0.017;-0.6;-2.4;33.3;67.79;1870;2018-04-16 22:33:44:675
-3.438;-9.355;0.306;-3.459;-9.144;0.765;0.021;-0.211;-0.459;0.001;0.809;0.002;-0.9;-2.3;33.5;67.79;1880;2018-04-16 22:33:44:685
-3.122;-9.402;0.043;-3.459;-9.144;0.765;0.021;-0.211;-0.459;-0.396;1.577;0.05;-0.9;-2.3;33.5;67.79;1890;2018-04-16 22:33:44:695
-3.122;-9.402;0.043;-3.484;-9.147;0.599;0.38;-0.274;-0.59;-0.464;1.586;0.061;-1.0;-2.1;33.6;67.79;1900;2018-04-16 22:33:44:705
-3.02;-9.437;-0.145;-3.484;-9.147;0.599;0.38;-0.274;-0.59;-0.462;1.417;0.071;-1.0;-2.1;33.6;67.79;1910;2018-04-16 22:33:44:715
-2.704;-9.218;-0.305;-3.506;-9.15;0.401;0.756;-0.051;-0.647;-0.411;1.119;0.062;-1.1;-2.0;33.7;67.79;1920;2018-04-16 22:33:44:725
-2.704;-9.218;-0.305;-3.506;-9.15;0.401;0.756;-0.051;-0.647;-0.411;1.119;0.062;-1.1;-2.0;33.7;67.79;1930;2018-04-16 22:33:44:735
-2.829;-9.325;-0.294;-3.511;-9.152;0.289;0.682;-0.173;-0.584;-0.272;0.505;0.035;-1.1;-1.9;33.7;67.79;1940;2018-04-16 22:33:44:745
-2.935;-9.154;0.017;-3.511;-9.152;0.289;0.682;-0.173;-0.584;-0.112;-0.127;0.045;-1.1;-1.9;33.7;67.79;1950;2018-04-16 22:33:44:755
-2.935;-9.154;0.017;-3.513;-9.152;0.274;0.55;0.038;-0.231;-0.051;-0.411;0.034;-1.1;-1.8;33.8;67.79;1960;2018-04-16 22:33:44:765
-3.201;-9.161;-0.032;-3.513;-9.152;0.274;0.55;0.038;-0.231;-0.04;-0.624;0.029;-1.1;-1.8;33.8;67.79;1969;2018-04-16 22:33:44:774
-3.115;-9.018;0.461;-3.514;-9.15;0.308;0.195;-0.059;-0.175;-0.04;-0.624;0.029;-1.0;-1.7;33.9;67.79;1979;2018-04-16 22:33:44:784
-3.115;-9.018;0.461;-3.514;-9.15;0.308;0.195;-0.059;-0.175;-0.064;-0.751;0.029;-1.0;-1.7;33.9;67.79;1990;2018-04-16 22:33:44:795
-3.353;-9.023;1.405;-3.507;-9.151;0.351;0.154;0.129;1.054;-0.061;-0.622;-0.033;-1.0;-1.8;33.9;67.79;2000;2018-04-16 22:33:44:805
-3.594;-9.212;0.984;-3.507;-9.151;0.351;0.154;0.129;1.054;-0.027;-0.298;-0.01;-1.0;-1.8;33.9;67.79;2010;2018-04-16 22:33:44:815
-3.594;-9.212;0.984;-3.502;-9.152;0.372;-0.069;-0.019;0.357;-0.011;-0.192;-0.026;-0.9;-1.7;33.9;67.79;2020;2018-04-16 22:33:44:825
-3.844;-9.221;0.105;-3.502;-9.152;0.372;-0.069;-0.019;0.357;-0.011;-0.192;-0.026;-0.9;-1.7;33.9;67.79;2030;2018-04-16 22:33:44:835
-4.207;-9.103;-0.45;-3.495;-9.155;0.39;-0.652;-0.067;-0.712;0.045;-0.297;-0.046;-0.8;-1.7;34.0;67.79;2040;2018-04-16 22:33:44:845
-4.207;-9.103;-0.45;-3.495;-9.155;0.39;-0.652;-0.067;-0.712;0.154;-0.558;-0.024;-0.8;-1.7;34.0;67.79;2049;2018-04-16 22:33:44:854
-4.374;-9.018;-0.175;-3.491;-9.153;0.451;-0.883;0.135;-0.626;0.191;-0.621;-0.017;-0.7;-1.7;34.1;67.79;2059;2018-04-16 22:33:44:864
-4.448;-8.951;0.198;-3.491;-9.153;0.451;-0.883;0.135;-0.626;0.193;-0.545;-0.004;-0.7;-1.7;34.1;67.79;2070;2018-04-16 22:33:44:875
-4.448;-8.951;0.198;-3.492;-9.149;0.519;-0.934;0.209;-0.212;0.16;-0.349;0.009;-0.7;-1.7;34.0;37.41;2080;2018-04-16 22:33:44:885
-4.35;-8.988;0.467;-3.492;-9.149;0.519;-0.934;0.209;-0.212;0.16;-0.349;0.009;-0.7;-1.7;34.0;37.41;2090;2018-04-16 22:33:44:895
-3.966;-9.013;0.463;-3.503;-9.144;0.538;-0.615;0.149;-0.059;0.045;0.078;0.04;-0.5;-1.6;34.1;37.41;2100;2018-04-16 22:33:44:905
-3.966;-9.013;0.463;-3.503;-9.144;0.538;-0.615;0.149;-0.059;-0.098;0.501;0.05;-0.5;-1.6;34.1;37.41;2110;2018-04-16 22:33:44:915
-3.73;-9.031;0.417;-3.52;-9.14;0.484;-0.21;0.109;-0.067;-0.17;0.696;0.054;-0.5;-1.6;34.0;37.41;2120;2018-04-16 22:33:44:925
-3.492;-9.06;0.291;-3.52;-9.14;0.484;-0.21;0.109;-0.067;-0.208;0.797;0.053;-0.5;-1.6;34.0;37.41;2130;2018-04-16 22:33:44:935
-3.492;-9.06;0.291;-3.537;-9.138;0.39;0.113;0.079;-0.119;-0.215;0.808;0.053;-0.4;-1.6;34.0;37.41;2139;2018-04-16 22:33:44:944
-3.332;-9.055;0.253;-3.537;-9.138;0.39;0.113;0.079;-0.119;-0.189;0.753;0.044;-0.4;-1.6;34.0;37.41;2149;2018-04-16 22:33:44:954
-3.237;-9.058;0.329;-3.548;-9.137;0.303;0.307;0.081;-0.017;-0.114;0.569;0.029;-0.4;-1.6;34.0;37.41;2159;2018-04-16 22:33:44:964
-3.237;-9.058;0.329;-3.548;-9.137;0.303;0.307;0.081;-0.017;-0.04;0.429;0.021;-0.4;-1.6;34.0;37.41;2170;2018-04-16 22:33:44:975
-3.27;-9.055;0.475;-3.552;-9.137;0.256;0.282;0.082;0.219;0.024;0.297;0.011;-0.5;-1.6;34.0;37.41;2180;2018-04-16 22:33:44:985
-3.352;-9.057;0.548;-3.552;-9.137;0.256;0.282;0.082;0.219;0.024;0.297;0.011;-0.5;-1.6;34.0;37.41;2190;2018-04-16 22:33:44:995
-3.352;-9.057;0.548;-3.554;-9.137;0.255;0.173;0.078;0.296;0.104;0.192;0.005;-0.6;-1.6;34.1;37.41;2200;2018-04-16 22:33:45:005
-3.434;-9.025;0.499;-3.554;-9.137;0.255;0.173;0.078;0.296;0.137;0.024;0.001;-0.6;-1.6;34.1;37.41;2210;2018-04-16 22:33:45:015
-3.534;-9.055;0.406;-3.554;-9.136;0.28;0.053;0.097;0.175;0.137;0.024;0.001;-0.6;-1.7;34.2;37.41;2220;2018-04-16 22:33:45:025
-3.534;-9.055;0.406;-3.554;-9.136;0.28;0.053;0.097;0.175;0.137;-0.072;0.004;-0.6;-1.7;34.2;37.41;2229;2018-04-16 22:33:45:034
-3.566;-9.023;0.266;-3.554;-9.135;0.311;-0.012;0.112;-0.045;0.127;-0.13;0.004;-0.6;-1.8;34.3;37.41;2239;2018-04-16 22:33:45:044
-3.669;-9.106;0.041;-3.554;-9.135;0.311;-0.012;0.112;-0.045;0.121;-0.235;0.006;-0.6;-1.8;34.3;37.41;2250;2018-04-16 22:33:45:055
-3.669;-9.106;0.041;-3.555;-9.133;0.348;-0.143;0.014;-0.383;0.139;-0.326;0.013;-0.6;-1.8;34.2;37.41;2260;2018-04-16 22:33:45:065
-3.735;-9.105;-0.244;-3.555;-9.133;0.348;-0.143;0.014;-0.383;0.167;-0.428;0.011;-0.6;-1.8;34.2;37.41;2270;2018-04-16 22:33:45:075
-3.828;-9.097;-0.306;-3.555;-9.131;0.403;-0.247;0.023;-0.715;0.195;-0.495;0.009;-0.6;-1.8;34.0;37.41;2280;2018-04-16 22:33:45:085
-3.828;-9.097;-0.306;-3.555;-9.131;0.403;-0.247;0.023;-0.715;0.21;-0.491;0.01;-0.6;-1.8;34.0;37.41;2290;2018-04-16 22:33:45:095
-3.864;-9.079;-0.16;-3.555;-9.128;0.468;-0.309;0.049;-0.628;0.199;-0.4;0.004;-0.6;-1.8;34.0;37.41;2300;2018-04-16 22:33:45:105
-3.91;-9.055;0.051;-3.555;-9.128;0.468;-0.309;0.049;-0.628;0.165;-0.224;0.0;-0.6;-1.8;34.0;37.41;2309;2018-04-16 22:33:45:114
-3.91;-9.055;0.051;-3.556;-9.125;0.507;-0.349;0.079;-0.418;0.103;0.02;-0.005;-0.6;-1.8;34.0;37.41;2319;2018-04-16 22:33:45:124
-3.921;-9.03;0.151;-3.556;-9.125;0.507;-0.349;0.079;-0.418;0.029;0.283;-0.007;-0.6;-1.8;34.0;37.41;2329;2018-04-16 22:33:45:134
-3.926;-9.054;0.044;-3.561;-9.124;0.488;-0.373;0.091;-0.407;-0.038;0.507;-0.012;-0.5;-1.7;33.9;37.41;2340;2018-04-16 22:33:45:145
-3.926;-9.054;0.044;-3.561;-9.124;0.488;-0.373;0.091;-0.407;-0.038;0.507;-0.012;-0.5;-1.7;33.9;37.41;2350;2018-04-16 22:33:45:155
-3.91;-9.025;-0.03;-3.567;-9.125;0.422;-0.343;0.1;-0.452;-0.109;0.679;-0.017;-0.5;-1.7;34.0;37.41;2360;2018-04-16 22:33:45:165
-3.868;-9.002;0.013;-3.567;-9.125;0.422;-0.343;0.1;-0.452;-0.131;0.687;-0.012;-0.5;-1.6;34.0;37.41;2370;2018-04-16 22:33:45:175
-3.868;-9.002;0.013;-3.573;-9.126;0.348;-0.268;0.158;-0.322;-0.127;0.639;-0.009;-0.5;-1.6;34.0;34.59;2380;2018-04-16 22:33:45:185
-3.78;-8.946;0.068;-3.573;-9.126;0.348;-0.268;0.158;-0.322;-0.112;0.546;-0.002;-0.6;-1.6;33.8;34.59;2390;2018-04-16 22:33:45:195
-3.748;-9.0;0.183;-3.578;-9.126;0.292;-0.18;0.158;-0.152;-0.094;0.437;-0.001;-0.6;-1.6;33.8;34.59;2400;2018-04-16 22:33:45:205
-3.748;-9.0;0.183;-3.578;-9.126;0.292;-0.18;0.158;-0.152;-0.064;0.265;0.006;-0.8;-1.7;33.7;34.59;2409;2018-04-16 22:33:45:214
-3.663;-9.056;0.299;-3.582;-9.125;0.262;-0.081;0.069;0.038;-0.064;0.265;0.006;-0.8;-1.7;33.7;34.59;2421;2018-04-16 22:33:45:226
-3.581;-9.063;0.368;-3.582;-9.125;0.262;-0.081;0.069;0.038;-0.032;0.108;0.012;-0.8;-1.7;33.9;34.59;2430;2018-04-16 22:33:45:235
-3.581;-9.063;0.368;-3.585;-9.124;0.255;0.027;0.083;0.118;-0.01;0.02;0.01;-0.8;-1.7;33.9;34.59;2440;2018-04-16 22:33:45:245
-3.521;-9.035;0.342;-3.585;-9.124;0.255;0.027;0.083;0.118;0.021;-0.101;0.007;-0.9;-1.6;33.9;34.59;2450;2018-04-16 22:33:45:255
-3.521;-9.035;0.342;-3.585;-9.124;0.263;0.119;0.125;0.03;0.021;-0.101;0.007;-0.9;-1.6;33.9;34.59;2460;2018-04-16 22:33:45:265
-3.446;-9.025;0.239;-3.585;-9.124;0.263;0.119;0.125;0.03;0.033;-0.145;0.001;-1.0;-1.6;33.9;34.59;2470;2018-04-16 22:33:45:275
-3.446;-9.025;0.239;-3.584;-9.124;0.282;0.124;0.078;-0.091;0.051;-0.178;-0.001;-1.0;-1.6;33.9;34.59;2480;2018-04-16 22:33:45:285
-3.485;-9.067;0.116;-3.584;-9.124;0.282;0.124;0.078;-0.091;0.072;-0.197;-0.007;-1.0;-1.6;33.9;34.59;2490;2018-04-16 22:33:45:295
-3.543;-9.063;0.054;-3.581;-9.124;0.308;0.066;0.056;-0.224;0.087;-0.193;-0.009;-1.0;-1.6;33.9;34.59;2500;2018-04-16 22:33:45:305
-3.642;-9.09;0.017;-3.581;-9.124;0.308;0.066;0.056;-0.224;0.087;-0.193;-0.009;-1.0;-1.6;33.9;34.59;2510;2018-04-16 22:33:45:315
-3.642;-9.09;0.017;-3.579;-9.124;0.335;-0.074;0.032;-0.32;0.099;-0.159;-0.005;-1.0;-1.5;33.9;34.59;2520;2018-04-16 22:33:45:325
-3.717;-9.11;0.01;-3.579;-9.124;0.335;-0.074;0.032;-0.32;0.086;-0.076;0.0;-1.0;-1.5;33.9;34.59;2530;2018-04-16 22:33:45:335
-3.717;-9.11;0.01;-3.58;-9.123;0.352;-0.13;0.005;-0.336;0.086;-0.076;0.0;-1.0;-1.5;33.8;34.59;2540;2018-04-16 22:33:45:345
-3.681;-9.11;0.013;-3.58;-9.123;0.352;-0.13;0.005;-0.336;0.056;0.055;0.0;-1.0;-1.5;33.8;34.59;2550;2018-04-16 22:33:45:355
-3.601;-9.076;0.016;-3.581;-9.123;0.348;-0.031;0.032;-0.341;0.027;0.145;0.0;-1.1;-1.5;33.8;34.59;2560;2018-04-16 22:33:45:365
-3.601;-9.076;0.016;-3.581;-9.123;0.348;-0.031;0.032;-0.341;-0.013;0.244;0.0;-1.1;-1.5;33.8;34.59;2570;2018-04-16 22:33:45:375
-3.572;-9.105;-0.006;-3.582;-9.123;0.325;0.01;0.018;-0.331;-0.013;0.244;0.0;-1.1;-1.4;33.9;34.59;2580;2018-04-16 22:33:45:385
-3.578;-9.121;0.043;-3.582;-9.123;0.325;0.01;0.018;-0.331;-0.043;0.285;-0.007;-1.1;-1.4;34.0;34.59;2590;2018-04-16 22:33:45:395
-3.578;-9.121;0.043;-3.583;-9.124;0.293;0.007;0.003;-0.25;-0.048;0.285;-0.009;-1.1;-1.4;34.0;34.59;2600;2018-04-16 22:33:45:405
-3.6;-9.106;0.08;-3.583;-9.124;0.293;0.007;0.003;-0.25;-0.045;0.246;-0.015;-1.1;-1.4;34.1;34.59;2610;2018-04-16 22:33:45:415
-3.6;-9.106;0.08;-3.582;-9.125;0.266;-0.035;0.02;-0.161;-0.045;0.246;-0.015;-1.1;-1.4;34.1;34.59;2620;2018-04-16 22:33:45:425
-3.607;-9.098;0.156;-3.582;-9.125;0.266;-0.035;0.02;-0.161;-0.038;0.183;-0.015;-1.2;-1.5;34.0;34.59;2630;2018-04-16 22:33:45:435
-3.607;-9.098;0.156;-3.58;-9.126;0.248;-0.014;0.022;-0.048;-0.029;0.138;-0.015;-1.2;-1.5;34.0;34.59;2640;2018-04-16 22:33:45:445
-3.575;-9.114;0.239;-3.58;-9.126;0.248;-0.014;0.022;-0.048;-0.022;0.099;-0.016;-1.3;-1.5;34.1;34.59;2650;2018-04-16 22:33:45:455
-3.575;-9.114;0.239;-3.577;-9.128;0.239;0.024;0.039;0.019;-0.009;0.068;-0.016;-1.3;-1.5;34.1;34.59;2660;2018-04-16 22:33:45:465
-3.513;-9.076;0.235;-3.577;-9.128;0.239;0.024;0.039;0.019;-0.001;0.042;-0.02;-1.4;-1.5;34.0;34.59;2670;2018-04-16 22:33:45:475
-3.513;-9.076;0.235;-3.574;-9.129;0.238;0.073;0.077;-0.05;0.005;0.015;-0.013;-1.4;-1.5;34.0;34.59;2680;2018-04-16 22:33:45:485
-3.469;-9.037;0.124;-3.574;-9.129;0.238;0.073;0.077;-0.05;0.01;-0.028;-0.006;-1.4;-1.5;34.0;34.59;2690;2018-04-16 22:33:45:495
-3.469;-9.037;0.124;-3.571;-9.13;0.239;0.103;0.051;-0.165;0.01;-0.028;-0.006;-1.4;-1.5;34.0;43.82;2700;2018-04-16 22:33:45:505
-3.5;-9.108;0.048;-3.571;-9.13;0.239;0.103;0.051;-0.165;0.012;-0.075;-0.004;-1.4;-1.5;34.1;43.82;2710;2018-04-16 22:33:45:515
-3.543;-9.148;0.041;-3.57;-9.131;0.246;0.048;-0.013;-0.203;0.013;-0.101;-0.004;-1.4;-1.5;34.1;43.82;2720;2018-04-16 22:33:45:525
-3.543;-9.148;0.041;-3.57;-9.131;0.246;0.048;-0.013;-0.203;0.015;-0.12;-0.001;-1.4;-1.5;34.1;43.82;2730;2018-04-16 22:33:45:535
-3.565;-9.117;0.035;-3.569;-9.131;0.255;0.004;0.013;-0.22;0.013;-0.126;0.0;-1.4;-1.5;34.1;43.82;2740;2018-04-16 22:33:45:545
-3.608;-9.13;0.049;-3.569;-9.131;0.255;0.004;0.013;-0.22;0.015;-0.122;0.001;-1.4;-1.5;34.1;43.82;2750;2018-04-16 22:33:45:555
-3.622;-9.118;0.104;-3.569;-9.13;0.262;-0.039;0.0;-0.213;0.006;-0.075;0.002;-1.4;-1.5;34.1;43.82;2760;2018-04-16 22:33:45:565
-3.648;-9.087;0.178;-3.569;-9.13;0.256;-0.078;0.043;-0.078;-0.006;-0.018;-0.001;-1.4;-1.5;34.1;43.82;2770;2018-04-16 22:33:45:575
-3.648;-9.087;0.178;-3.569;-9.13;0.256;-0.078;0.043;-0.078;-0.006;-0.018;-0.001;-1.4;-1.4;34.1;43.82;2780;2018-04-16 22:33:45:585
-3.677;-9.03;0.193;-3.569;-9.13;0.256;-0.078;0.043;-0.078;-0.046;0.109;-0.006;-1.4;-1.4;34.1;43.82;2790;2018-04-16 22:33:45:595
-3.719;-9.008;0.177;-3.57;-9.13;0.237;-0.115;0.118;-0.05;-0.053;0.151;-0.005;-1.4;-1.4;34.1;43.82;2800;2018-04-16 22:33:45:605
-3.719;-9.008;0.177;-3.57;-9.13;0.237;-0.115;0.118;-0.05;-0.053;0.156;-0.005;-1.4;-1.4;34.1;43.82;2810;2018-04-16 22:33:45:615
-3.776;-9.023;0.16;-3.572;-9.13;0.216;-0.204;0.108;-0.055;-0.043;0.128;-0.002;-1.4;-1.5;34.0;43.82;2820;2018-04-16 22:33:45:625
-3.859;-9.08;0.164;-3.572;-9.13;0.216;-0.204;0.108;-0.055;-0.022;0.082;0.0;-1.4;-1.5;34.0;43.82;2830;2018-04-16 22:33:45:635
-3.859;-9.08;0.164;-3.574;-9.13;0.206;-0.295;0.035;-0.049;0.001;0.029;0.001;-1.4;-1.5;34.1;43.82;2839;2018-04-16 22:33:45:644
-3.887;-9.085;0.136;-3.574;-9.13;0.206;-0.295;0.035;-0.049;0.026;-0.02;0.004;-1.4;-1.5;34.1;43.82;2850;2018-04-16 22:33:45:655
-3.81;-9.037;0.042;-3.578;-9.128;0.211;-0.279;0.069;-0.142;0.048;-0.07;0.012;-1.5;-1.5;34.1;43.82;2860;2018-04-16 22:33:45:665
-3.81;-9.037;0.042;-3.578;-9.128;0.211;-0.279;0.069;-0.142;0.067;-0.101;0.011;-1.5;-1.5;34.1;43.82;2870;2018-04-16 22:33:45:675
-3.713;-9.002;-0.034;-3.581;-9.126;0.228;-0.132;0.124;-0.261;0.077;-0.117;0.016;-1.5;-1.6;34.1;43.82;2880;2018-04-16 22:33:45:685
-3.632;-9.023;0.006;-3.581;-9.126;0.228;-0.132;0.124;-0.261;0.077;-0.1;0.011;-1.5;-1.6;34.1;43.82;2890;2018-04-16 22:33:45:695
-3.632;-9.023;0.006;-3.584;-9.125;0.245;-0.027;0.119;-0.209;0.077;-0.1;0.011;-1.5;-1.5;34.1;43.82;2900;2018-04-16 22:33:45:705
-3.616;-9.011;0.068;-3.584;-9.125;0.245;-0.027;0.119;-0.209;0.04;-0.001;0.005;-1.5;-1.5;34.1;43.82;2910;2018-04-16 22:33:45:715
-3.616;-9.011;0.068;-3.585;-9.124;0.244;-0.069;0.138;-0.142;0.004;0.097;0.0;-1.5;-1.6;34.0;43.82;2920;2018-04-16 22:33:45:725
-3.705;-8.979;0.116;-3.585;-9.124;0.244;-0.069;0.138;-0.142;-0.059;0.22;0.0;-1.5;-1.6;34.0;43.82;2930;2018-04-16 22:33:45:735
-3.816;-8.988;0.115;-3.588;-9.124;0.216;-0.196;0.143;-0.114;-0.059;0.22;0.0;-1.5;-1.6;34.0;43.82;2940;2018-04-16 22:33:45:745
-3.816;-8.988;0.115;-3.588;-9.124;0.216;-0.196;0.143;-0.114;-0.089;0.264;0.0;-1.5;-1.6;34.0;43.82;2950;2018-04-16 22:33:45:755
-3.875;-8.996;0.109;-3.592;-9.123;0.181;-0.283;0.127;-0.072;-0.084;0.242;0.002;-1.5;-1.6;34.0;43.82;2960;2018-04-16 22:33:45:765
-3.893;-8.953;0.148;-3.592;-9.123;0.181;-0.283;0.127;-0.072;-0.056;0.154;0.006;-1.6;-1.7;34.0;43.82;2970;2018-04-16 22:33:45:775
-3.893;-8.953;0.148;-3.597;-9.122;0.161;-0.302;0.17;0.006;-0.056;0.154;0.006;-1.6;-1.7;34.0;43.82;2981;2018-04-16 22:33:45:786
-3.879;-8.948;0.204;-3.597;-9.122;0.161;-0.302;0.17;0.006;-0.002;0.048;0.013;-1.6;-1.7;34.0;43.82;2990;2018-04-16 22:33:45:795
-3.879;-8.948;0.204;-3.603;-9.119;0.163;-0.254;0.16;0.064;0.029;-0.011;0.02;-1.6;-1.7;34.0;43.82;3000;2018-04-16 22:33:45:805
-3.807;-8.982;0.225;-3.603;-9.119;0.163;-0.254;0.16;0.064;0.059;-0.06;0.028;-1.6;-1.7;33.9;43.82;3010;2018-04-16 22:33:45:815
-3.749;-9.045;0.199;-3.609;-9.117;0.177;-0.14;0.071;0.022;0.059;-0.06;0.028;-1.6;-1.7;33.9;48.48;3020;2018-04-16 22:33:45:825
-3.749;-9.045;0.199;-3.609;-9.117;0.177;-0.14;0.071;0.022;0.059;-0.06;0.028;-1.6;-1.7;33.9;48.48;3030;2018-04-16 22:33:45:835
-3.692;-9.062;0.144;-3.612;-9.115;0.184;-0.08;0.053;-0.04;0.062;-0.062;0.029;-1.6;-1.7;33.9;48.48;3040;2018-04-16 22:33:45:845
-3.555;-9.064;0.037;-3.612;-9.115;0.184;-0.08;0.053;-0.04;0.05;-0.027;0.02;-1.6;-1.8;33.8;48.48;3050;2018-04-16 22:33:45:855
-3.555;-9.064;0.037;-3.618;-9.113;0.201;0.072;0.045;-0.185;0.044;-0.011;0.011;-1.6;-1.8;33.8;48.48;3060;2018-04-16 22:33:45:865
-3.557;-9.063;0.002;-3.618;-9.113;0.201;0.072;0.045;-0.185;0.044;-0.011;0.011;-1.7;-1.8;33.7;48.48;3070;2018-04-16 22:33:45:875
-3.637;-9.057;0.022;-3.618;-9.112;0.204;0.028;0.066;-0.195;0.031;0.011;0.0;-1.7;-1.8;33.7;48.48;3080;2018-04-16 22:33:45:885
-3.637;-9.057;0.022;-3.618;-9.112;0.204;0.028;0.066;-0.195;0.02;0.04;-0.013;-1.7;-1.8;33.7;48.48;3090;2018-04-16 22:33:45:895
-3.731;-9.064;0.05;-3.617;-9.113;0.203;-0.115;0.049;-0.152;0.017;0.065;-0.018;-1.7;-1.8;33.7;48.48;3100;2018-04-16 22:33:45:905
-3.803;-9.063;0.104;-3.617;-9.113;0.203;-0.115;0.049;-0.152;0.015;0.092;-0.021;-1.7;-1.8;33.7;48.48;3110;2018-04-16 22:33:45:915
-3.803;-9.063;0.104;-3.615;-9.114;0.198;-0.192;0.059;-0.08;0.015;0.092;-0.021;-1.7;-1.8;33.7;48.48;3120;2018-04-16 22:33:45:925
-3.816;-9.06;0.117;-3.615;-9.114;0.198;-0.192;0.059;-0.08;0.013;0.126;-0.02;-1.7;-1.8;33.7;48.48;3130;2018-04-16 22:33:45:935
-3.818;-9.05;0.092;-3.614;-9.115;0.19;-0.191;0.068;-0.088;0.018;0.138;-0.018;-1.7;-1.8;33.7;48.48;3140;2018-04-16 22:33:45:945
-3.818;-9.05;0.092;-3.614;-9.115;0.19;-0.191;0.068;-0.088;0.024;0.137;-0.017;-1.7;-1.8;33.6;48.48;3150;2018-04-16 22:33:45:955
-3.785;-9.03;0.08;-3.613;-9.115;0.183;-0.173;0.085;-0.103;0.031;0.126;-0.015;-1.7;-1.8;33.6;48.48;3160;2018-04-16 22:33:45:965
-3.762;-9.026;0.05;-3.613;-9.115;0.183;-0.173;0.085;-0.103;0.038;0.117;-0.016;-1.7;-1.8;33.6;48.48;3170;2018-04-16 22:33:45:975
-3.762;-9.026;0.05;-3.612;-9.115;0.18;-0.131;0.082;-0.136;0.034;0.111;-0.013;-1.7;-1.8;33.6;48.48;3179;2018-04-16 22:33:45:984
-3.68;-9.055;0.03;-3.612;-9.115;0.18;-0.131;0.082;-0.136;0.026;0.099;-0.015;-1.8;-1.8;33.5;48.48;3190;2018-04-16 22:33:45:995
-3.621;-9.062;0.017;-3.61;-9.116;0.176;-0.037;0.053;-0.159;0.012;0.086;-0.01;-1.8;-1.8;33.5;48.48;3200;2018-04-16 22:33:46:005
-3.621;-9.062;0.017;-3.61;-9.116;0.176;-0.037;0.053;-0.159;-0.011;0.067;-0.01;-1.8;-1.8;33.4;48.48;3210;2018-04-16 22:33:46:015
-3.587;-9.048;0.014;-3.609;-9.117;0.167;0.014;0.063;-0.143;-0.011;0.067;-0.01;-1.8;-1.8;33.4;48.48;3220;2018-04-16 22:33:46:025
-3.61;-9.035;0.037;-3.609;-9.117;0.167;0.014;0.063;-0.143;-0.042;0.022;-0.01;-1.9;-1.8;33.4;48.48;3230;2018-04-16 22:33:46:035
-3.61;-9.035;0.037;-3.607;-9.118;0.156;-0.027;0.075;-0.113;-0.065;-0.038;-0.01;-1.9;-1.8;33.4;48.48;3239;2018-04-16 22:33:46:044
-3.658;-9.011;0.047;-3.607;-9.118;0.156;-0.027;0.075;-0.113;-0.068;-0.079;-0.011;-1.9;-1.8;33.5;48.48;3250;2018-04-16 22:33:46:055
-3.706;-8.995;0.134;-3.606;-9.118;0.149;-0.083;0.122;-0.04;-0.06;-0.12;-0.012;-1.9;-1.8;33.5;48.48;3260;2018-04-16 22:33:46:065
-3.706;-8.995;0.134;-3.606;-9.118;0.149;-0.083;0.122;-0.04;-0.042;-0.149;-0.013;-1.9;-1.8;33.5;48.48;3270;2018-04-16 22:33:46:075
-3.709;-8.991;0.168;-3.604;-9.119;0.153;-0.104;0.128;0.015;-0.009;-0.165;-0.016;-1.9;-1.8;33.5;48.48;3280;2018-04-16 22:33:46:085
-3.711;-9.005;0.153;-3.604;-9.119;0.153;-0.104;0.128;0.015;-0.009;-0.165;-0.016;-1.9;-1.8;33.5;48.48;3290;2018-04-16 22:33:46:095
-3.711;-9.005;0.153;-3.602;-9.12;0.164;-0.104;0.113;-0.013;0.01;-0.154;-0.015;-1.9;-1.8;33.5;48.48;3300;2018-04-16 22:33:46:105
-3.7;-9.024;0.086;-3.602;-9.12;0.164;-0.104;0.113;-0.013;0.033;-0.106;-0.013;-1.9;-1.8;33.5;48.48;3310;2018-04-16 22:33:46:115
-3.709;-9.033;0.043;-3.6;-9.12;0.177;-0.108;0.087;-0.134;0.033;-0.106;-0.013;-1.9;-1.8;33.5;48.48;3320;2018-04-16 22:33:46:125
-3.709;-9.033;0.043;-3.6;-9.12;0.177;-0.108;0.087;-0.134;0.035;-0.065;-0.018;-1.9;-1.9;33.5;48.48;3330;2018-04-16 22:33:46:135
-3.71;-9.042;-0.028;-3.598;-9.121;0.184;-0.111;0.079;-0.211;0.027;-0.038;-0.015;-1.9;-1.9;33.5;50.13;3340;2018-04-16 22:33:46:145
-3.733;-9.051;-0.037;-3.598;-9.121;0.184;-0.111;0.079;-0.211;0.002;-0.005;-0.016;-1.9;-1.8;33.6;50.13;3350;2018-04-16 22:33:46:155
-3.733;-9.051;-0.037;-3.597;-9.121;0.182;-0.152;0.059;-0.194;0.002;-0.005;-0.016;-1.9;-1.8;33.6;50.13;3360;2018-04-16 22:33:46:165
-3.746;-9.084;0.002;-3.597;-9.121;0.182;-0.152;0.059;-0.194;-0.022;0.017;-0.015;-1.8;-1.8;33.6;50.13;3370;2018-04-16 22:33:46:175
-3.74;-9.088;0.043;-3.596;-9.122;0.173;-0.137;0.037;-0.138;-0.038;0.02;-0.015;-1.8;-1.8;33.6;50.13;3380;2018-04-16 22:33:46:185
-3.74;-9.088;0.043;-3.596;-9.122;0.173;-0.137;0.037;-0.138;-0.044;0.001;-0.012;-1.9;-1.8;33.5;50.13;3389;2018-04-16 22:33:46:194
-3.707;-9.123;0.043;-3.595;-9.123;0.164;-0.113;-0.001;-0.121;-0.044;0.001;-0.012;-1.9;-1.8;33.5;50.13;3399;2018-04-16 22:33:46:204
-3.682;-9.134;0.083;-3.595;-9.123;0.164;-0.113;-0.001;-0.121;-0.048;-0.039;-0.01;-1.9;-1.9;33.4;50.13;3410;2018-04-16 22:33:46:215
-3.682;-9.134;0.083;-3.593;-9.123;0.159;-0.086;-0.021;-0.057;-0.045;-0.068;-0.011;-1.9;-1.9;33.4;50.13;3420;2018-04-16 22:33:46:225
-3.675;-9.125;0.121;-3.593;-9.123;0.159;-0.086;-0.021;-0.057;-0.045;-0.09;-0.011;-1.9;-1.9;33.3;50.13;3430;2018-04-16 22:33:46:235
-3.691;-9.079;0.086;-3.591;-9.124;0.157;-0.096;0.027;-0.054;-0.042;-0.112;-0.017;-1.9;-1.9;33.3;50.13;3439;2018-04-16 22:33:46:244
-3.691;-9.079;0.086;-3.59;-9.125;0.157;-0.103;0.07;-0.077;-0.04;-0.115;-0.02;-1.9;-1.9;33.2;50.13;3450;2018-04-16 22:33:46:255
-3.692;-9.009;0.043;-3.59;-9.125;0.157;-0.103;0.07;-0.077;-0.04;-0.115;-0.02;-1.9;-1.9;33.2;50.13;3460;2018-04-16 22:33:46:265
-3.68;-8.97;0.043;-3.587;-9.126;0.159;-0.105;0.142;-0.117;-0.031;-0.127;-0.023;-1.9;-1.9;33.3;50.13;3470;2018-04-16 22:33:46:275
-3.68;-8.97;0.043;-3.587;-9.126;0.159;-0.105;0.142;-0.117;-0.031;-0.123;-0.024;-1.9;-1.9;33.3;50.13;3480;2018-04-16 22:33:46:285
-3.67;-8.965;0.067;-3.583;-9.127;0.16;-0.088;0.162;-0.093;-0.037;-0.104;-0.027;-1.8;-2.1;33.3;50.13;3490;2018-04-16 22:33:46:295
-3.67;-8.965;0.067;-3.583;-9.127;0.16;-0.088;0.162;-0.093;-0.037;-0.104;-0.027;-1.8;-2.1;33.3;50.13;3500;2018-04-16 22:33:46:305
-3.688;-9.006;0.124;-3.579;-9.129;0.155;-0.109;0.123;-0.03;-0.054;-0.028;-0.026;-1.8;-2.1;33.3;50.13;3510;2018-04-16 22:33:46:315
-3.698;-9.005;0.14;-3.579;-9.129;0.155;-0.109;0.123;-0.03;-0.062;0.013;-0.027;-1.8;-2.1;33.3;50.13;3520;2018-04-16 22:33:46:325
-3.698;-9.005;0.14;-3.575;-9.131;0.14;-0.133;0.1;-0.009;-0.078;0.04;-0.026;-1.7;-2.1;33.4;50.13;3530;2018-04-16 22:33:46:335
-3.729;-9.032;0.129;-3.574;-9.131;0.131;-0.155;0.099;-0.001;-0.078;0.04;-0.026;-1.7;-2.1;33.4;50.13;3540;2018-04-16 22:33:46:345
-3.729;-9.032;0.129;-3.574;-9.131;0.131;-0.155;0.099;-0.001;-0.077;0.023;-0.024;-1.6;-2.1;33.3;50.13;3550;2018-04-16 22:33:46:355
-3.735;-9.044;0.168;-3.571;-9.133;0.118;-0.164;0.089;0.05;-0.065;-0.002;-0.023;-1.6;-2.1;33.3;50.13;3560;2018-04-16 22:33:46:365
-3.735;-9.044;0.168;-3.571;-9.133;0.118;-0.164;0.089;0.05;-0.065;-0.002;-0.023;-1.6;-2.1;33.3;50.13;3570;2018-04-16 22:33:46:375
-3.722;-8.993;0.227;-3.569;-9.133;0.114;-0.153;0.141;0.113;-0.038;-0.065;-0.021;-1.6;-2.1;33.4;50.13;3579;2018-04-16 22:33:46:384
-3.703;-9.015;0.29;-3.569;-9.133;0.114;-0.153;0.141;0.113;-0.016;-0.089;-0.016;-1.6;-2.1;33.4;50.13;3590;2018-04-16 22:33:46:395
-3.703;-9.015;0.29;-3.567;-9.134;0.118;-0.13;0.122;0.177;-0.016;-0.089;-0.016;-1.6;-2.1;33.4;50.13;3600;2018-04-16 22:33:46:405
-3.693;-9.038;0.283;-3.567;-9.134;0.118;-0.13;0.122;0.177;-0.009;-0.078;-0.013;-1.6;-2.1;33.5;50.13;3610;2018-04-16 22:33:46:415
-3.693;-9.038;0.283;-3.566;-9.134;0.124;-0.138;0.106;0.126;-0.001;-0.067;-0.012;-1.6;-2.1;33.5;50.13;3620;2018-04-16 22:33:46:425
-3.694;-9.045;0.189;-3.566;-9.134;0.124;-0.138;0.106;0.126;0.005;-0.066;-0.013;-1.5;-2.1;33.5;50.13;3630;2018-04-16 22:33:46:435
-3.709;-9.036;0.122;-3.565;-9.135;0.131;-0.133;0.098;0.015;0.012;-0.068;-0.016;-1.5;-2.1;33.5;50.13;3639;2018-04-16 22:33:46:444
-3.709;-9.036;0.122;-3.565;-9.135;0.131;-0.133;0.098;0.015;0.027;-0.082;-0.013;-1.5;-2.2;33.5;50.13;3650;2018-04-16 22:33:46:455
-3.701;-9.032;0.095;-3.563;-9.135;0.141;-0.138;0.103;-0.046;0.027;-0.082;-0.013;-1.5;-2.2;33.5;50.13;3660;2018-04-16 22:33:46:465
-3.689;-9.038;0.073;-3.563;-9.135;0.141;-0.138;0.103;-0.046;0.038;-0.083;-0.013;-1.5;-2.1;33.6;50.13;3670;2018-04-16 22:33:46:475
-3.689;-9.038;0.073;-3.562;-9.136;0.153;-0.13;0.098;-0.083;0.042;-0.07;-0.017;-1.5;-2.1;33.6;49.69;3680;2018-04-16 22:33:46:485
-3.67;-9.051;0.073;-3.562;-9.136;0.153;-0.13;0.098;-0.083;0.043;-0.048;-0.017;-1.4;-2.2;33.6;49.69;3691;2018-04-16 22:33:46:496
-3.666;-9.061;0.055;-3.559;-9.136;0.161;-0.106;0.076;-0.106;0.037;-0.013;-0.017;-1.4;-2.2;33.6;49.69;3700;2018-04-16 22:33:46:505
-3.625;-9.081;0.023;-3.559;-9.136;0.161;-0.106;0.076;-0.106;0.013;0.032;-0.012;-1.3;-2.1;33.8;49.69;3710;2018-04-16 22:33:46:515
-3.625;-9.081;0.023;-3.558;-9.137;0.16;-0.083;0.059;-0.129;0.013;0.032;-0.012;-1.3;-2.1;33.8;49.69;3721;2018-04-16 22:33:46:526
-3.639;-9.109;0.01;-3.558;-9.137;0.16;-0.083;0.059;-0.129;-0.009;0.054;-0.007;-1.3;-2.2;34.0;49.69;3730;2018-04-16 22:33:46:535
-3.621;-9.109;0.016;-3.558;-9.137;0.151;-0.064;0.029;-0.136;-0.023;0.053;-0.007;-1.3;-2.2;34.0;49.69;3740;2018-04-16 22:33:46:545
-3.621;-9.109;0.016;-3.558;-9.137;0.151;-0.064;0.029;-0.136;-0.023;0.053;-0.007;-1.2;-2.2;33.9;49.69;3750;2018-04-16 22:33:46:555
-3.594;-9.094;0.047;-3.557;-9.138;0.144;-0.036;0.043;-0.097;-0.032;0.006;-0.004;-1.2;-2.2;33.9;49.69;3760;2018-04-16 22:33:46:565
-3.594;-9.094;0.047;-3.557;-9.138;0.144;-0.036;0.043;-0.097;-0.032;-0.022;-0.004;-1.2;-2.2;34.0;49.69;3770;2018-04-16 22:33:46:575
-3.595;-9.082;0.135;-3.557;-9.138;0.14;-0.038;0.055;-0.004;-0.032;-0.022;-0.004;-1.2;-2.2;34.0;49.69;3780;2018-04-16 22:33:46:585
-3.565;-9.097;0.164;-3.557;-9.138;0.14;-0.038;0.055;-0.004;-0.031;-0.071;0.0;-1.2;-2.2;34.1;49.69;3789;2018-04-16 22:33:46:594
-3.565;-9.097;0.164;-3.557;-9.138;0.14;-0.01;0.049;0.022;-0.026;-0.089;-0.001;-1.2;-2.2;34.1;49.69;3800;2018-04-16 22:33:46:605
-3.589;-9.074;0.18;-3.557;-9.138;0.14;-0.01;0.049;0.022;-0.021;-0.104;-0.002;-1.1;-2.2;34.1;49.69;3810;2018-04-16 22:33:46:615
-3.589;-9.074;0.18;-3.557;-9.138;0.145;-0.023;0.098;0.005;-0.016;-0.116;-0.001;-1.1;-2.2;34.1;49.69;3820;2018-04-16 22:33:46:625
-3.603;-9.044;0.129;-3.557;-9.138;0.145;-0.023;0.098;0.005;-0.01;-0.127;-0.004;-1.1;-2.2;34.1;49.69;3830;2018-04-16 22:33:46:635
-3.603;-9.044;0.129;-3.557;-9.138;0.153;-0.078;0.102;-0.052;-0.004;-0.138;-0.007;-1.1;-2.2;34.1;49.69;3840;2018-04-16 22:33:46:645
-3.645;-9.061;0.083;-3.557;-9.138;0.153;-0.078;0.102;-0.052;0.005;-0.139;-0.011;-1.1;-2.2;34.1;49.69;3850;2018-04-16 22:33:46:655
-3.644;-9.09;0.089;-3.555;-9.138;0.163;-0.101;0.057;-0.06;0.005;-0.139;-0.011;-1.1;-2.2;34.1;49.69;3860;2018-04-16 22:33:46:665
-3.644;-9.09;0.089;-3.555;-9.138;0.163;-0.101;0.057;-0.06;0.004;-0.125;-0.011;-1.0;-2.2;34.2;49.69;3870;2018-04-16 22:33:46:675
-3.612;-9.133;0.091;-3.553;-9.139;0.17;-0.058;0.006;-0.079;-0.002;-0.092;-0.011;-1.0;-2.2;34.2;49.69;3881;2018-04-16 22:33:46:686
-3.612;-9.133;0.091;-3.553;-9.139;0.17;-0.058;0.006;-0.079;-0.015;-0.061;-0.012;-1.0;-2.3;34.1;49.69;3892;2018-04-16 22:33:46:697
-3.597;-9.148;0.054;-3.551;-9.139;0.17;-0.046;-0.009;-0.116;-0.018;-0.054;-0.016;-1.0;-2.3;34.1;49.69;3900;2018-04-16 22:33:46:705
-3.597;-9.148;0.054;-3.551;-9.139;0.17;-0.046;-0.009;-0.116;-0.018;-0.054;-0.016;-0.9;-2.3;34.0;49.69;3910;2018-04-16 22:33:46:715
-3.557;-9.133;0.043;-3.548;-9.141;0.169;-0.009;0.008;-0.126;-0.023;-0.053;-0.02;-0.9;-2.3;34.0;49.69;3920;2018-04-16 22:33:46:725
-3.557;-9.133;0.043;-3.548;-9.141;0.169;-0.009;0.008;-0.126;-0.032;-0.068;-0.018;-0.9;-2.3;34.0;49.69;3930;2018-04-16 22:33:46:735
-3.558;-9.079;0.073;-3.544;-9.142;0.166;-0.013;0.063;-0.093;-0.032;-0.068;-0.018;-0.9;-2.3;34.0;49.69;3940;2018-04-16 22:33:46:745
-3.57;-9.099;0.117;-3.544;-9.142;0.166;-0.013;0.063;-0.093;-0.039;-0.079;-0.02;-0.8;-2.2;34.0;49.69;3950;2018-04-16 22:33:46:755
-3.57;-9.099;0.117;-3.541;-9.144;0.164;-0.041;0.031;-0.032;-0.048;-0.09;-0.021;-0.8;-2.2;34.0;49.69;3960;2018-04-16 22:33:46:765
-3.597;-9.121;0.169;-3.541;-9.144;0.164;-0.041;0.031;-0.032;-0.053;-0.092;-0.02;-0.8;-2.3;34.1;49.69;3970;2018-04-16 22:33:46:775
-3.597;-9.121;0.169;-3.537;-9.145;0.161;-0.056;0.004;0.036;-0.053;-0.092;-0.02;-0.8;-2.3;34.1;49.69;3980;2018-04-16 22:33:46:785
-3.577;-9.118;0.186;-3.537;-9.145;0.161;-0.056;0.004;0.036;-0.062;-0.095;-0.024;-0.8;-2.4;34.0;49.69;3990;2018-04-16 22:33:46:795
-3.624;-9.105;0.17;-3.532;-9.147;0.157;-0.091;0.042;0.013;-0.055;-0.1;-0.034;-0.8;-2.4;34.0;49.47;4000;2018-04-16 22:33:46:805
-3.624;-9.105;0.17;-3.532;-9.147;0.157;-0.091;0.042;0.013;-0.051;-0.116;-0.032;-0.8;-2.4;34.0;49.47;4010;2018-04-16 22:33:46:815
-3.607;-9.061;0.141;-3.527;-9.149;0.158;-0.08;0.088;-0.016;-0.032;-0.142;-0.037;-0.8;-2.4;34.0;49.47;4020;2018-04-16 22:33:46:825
-3.663;-9.073;0.159;-3.527;-9.149;0.158;-0.08;0.088;-0.016;-0.027;-0.149;-0.037;-0.7;-2.4;33.9;49.47;4030;2018-04-16 22:33:46:835
-3.663;-9.073;0.159;-3.521;-9.151;0.163;-0.143;0.068;0.002;-0.023;-0.15;-0.035;-0.7;-2.4;33.9;49.47;4040;2018-04-16 22:33:46:845
-3.693;-9.112;0.158;-3.521;-9.151;0.163;-0.143;0.068;0.002;-0.023;-0.15;-0.035;-0.6;-2.5;34.0;49.47;4049;2018-04-16 22:33:46:854
-3.736;-9.096;0.158;-3.516;-9.153;0.168;-0.212;0.047;-0.01;-0.023;-0.13;-0.034;-0.6;-2.5;34.0;49.47;4060;2018-04-16 22:33:46:865
-3.736;-9.096;0.158;-3.516;-9.153;0.168;-0.212;0.047;-0.01;-0.032;-0.109;-0.032;-0.6;-2.5;33.9;49.47;4070;2018-04-16 22:33:46:875
-3.754;-9.08;0.159;-3.512;-9.155;0.168;-0.242;0.075;-0.009;-0.043;-0.083;-0.031;-0.6;-2.5;33.9;49.47;4079;2018-04-16 22:33:46:884
-3.747;-9.007;0.184;-3.512;-9.155;0.168;-0.242;0.075;-0.009;-0.055;-0.046;-0.024;-0.5;-2.5;33.9;49.47;4090;2018-04-16 22:33:46:895
-3.747;-9.007;0.184;-3.51;-9.156;0.161;-0.231;0.168;0.016;-0.055;-0.046;-0.024;-0.5;-2.5;33.9;49.47;4100;2018-04-16 22:33:46:905
-3.745;-8.979;0.211;-3.51;-9.156;0.161;-0.231;0.168;0.016;-0.06;-0.022;-0.024;-0.5;-2.6;33.8;49.47;4110;2018-04-16 22:33:46:915
-3.751;-8.97;0.237;-3.508;-9.156;0.152;-0.242;0.186;0.085;-0.06;-0.009;-0.023;-0.5;-2.6;33.8;49.47;4120;2018-04-16 22:33:46:925
-3.751;-8.97;0.237;-3.508;-9.156;0.152;-0.242;0.186;0.085;-0.05;0.007;-0.02;-0.4;-2.6;33.9;49.47;4130;2018-04-16 22:33:46:935
-3.759;-8.971;0.285;-3.507;-9.157;0.143;-0.252;0.186;0.142;-0.05;0.007;-0.02;-0.4;-2.6;33.9;49.47;4140;2018-04-16 22:33:46:945
-3.753;-9.001;0.262;-3.507;-9.157;0.143;-0.252;0.186;0.142;-0.04;0.009;-0.017;-0.4;-2.6;33.9;49.47;4150;2018-04-16 22:33:46:955
-3.753;-9.001;0.262;-3.508;-9.157;0.138;-0.245;0.17;0.131;-0.029;-0.006;-0.012;-0.4;-2.6;33.9;49.47;4160;2018-04-16 22:33:46:965
-3.73;-9.019;0.251;-3.508;-9.157;0.138;-0.245;0.17;0.131;-0.011;-0.038;-0.01;-0.3;-2.6;33.8;49.47;4170;2018-04-16 22:33:46:975
-3.734;-9.017;0.231;-3.508;-9.157;0.139;-0.225;0.14;0.092;-0.005;-0.061;-0.009;-0.3;-2.6;33.8;49.47;4180;2018-04-16 22:33:46:985
-3.755;-9.043;0.22;-3.508;-9.157;0.139;-0.225;0.14;0.092;0.002;-0.082;-0.005;-0.3;-2.7;33.6;49.47;4190;2018-04-16 22:33:46:995
-3.755;-9.043;0.22;-3.509;-9.156;0.147;-0.242;0.106;0.071;0.002;-0.082;-0.005;-0.3;-2.7;33.6;49.47;4200;2018-04-16 22:33:47:005
-3.762;-9.063;0.206;-3.509;-9.156;0.147;-0.242;0.106;0.071;0.016;-0.099;-0.004;-0.2;-2.7;33.6;49.47;4210;2018-04-16 22:33:47:015
-3.768;-9.06;0.196;-3.511;-9.155;0.157;-0.26;0.088;0.058;0.016;-0.088;-0.005;-0.2;-2.7;33.6;49.47;4220;2018-04-16 22:33:47:025
-3.768;-9.06;0.196;-3.511;-9.155;0.157;-0.26;0.088;0.058;0.017;-0.06;-0.005;-0.1;-2.7;33.6;49.47;4230;2018-04-16 22:33:47:035
-3.717;-9.062;0.171;-3.512;-9.155;0.164;-0.205;0.093;0.007;0.012;-0.033;-0.001;-0.1;-2.7;33.6;49.47;4240;2018-04-16 22:33:47:045
-3.655;-9.062;0.145;-3.512;-9.155;0.164;-0.205;0.093;0.007;0.012;-0.033;-0.001;-0.1;-2.7;33.7;49.47;4250;2018-04-16 22:33:47:055
-3.655;-9.062;0.145;-3.513;-9.154;0.166;-0.13;0.096;-0.02;0.009;0.013;-0.006;-0.1;-2.7;33.7;49.47;4260;2018-04-16 22:33:47:065
-3.616;-9.072;0.119;-3.513;-9.154;0.166;-0.13;0.096;-0.02;0.001;0.054;-0.01;0.0;-2.7;33.6;49.47;4270;2018-04-16 22:33:47:075
-3.598;-9.097;0.127;-3.512;-9.155;0.161;-0.092;0.063;-0.042;-0.001;0.073;-0.013;0.0;-2.7;33.6;49.47;4280;2018-04-16 22:33:47:085
-3.598;-9.097;0.127;-3.512;-9.155;0.161;-0.092;0.063;-0.042;-0.002;0.082;-0.017;0.0;-2.7;33.6;49.47;4290;2018-04-16 22:33:47:095
-3.615;-9.079;0.129;-3.51;-9.156;0.155;-0.105;0.077;-0.026;-0.004;0.086;-0.022;0.0;-2.7;33.6;49.47;4300;2018-04-16 22:33:47:105
-3.654;-9.062;0.123;-3.51;-9.156;0.155;-0.105;0.077;-0.026;-0.004;0.078;-0.027;0.0;-2.7;33.7;49.47;4310;2018-04-16 22:33:47:115
-3.654;-9.062;0.123;-3.507;-9.157;0.149;-0.171;0.096;-0.008;-0.004;0.078;-0.027;0.0;-2.7;33.7;48.88;4320;2018-04-16 22:33:47:125
-3.694;-9.055;0.121;-3.507;-9.157;0.149;-0.171;0.096;-0.008;-0.005;0.062;-0.026;0.0;-2.8;33.6;48.88;4330;2018-04-16 22:33:47:135
-3.741;-9.052;0.122;-3.504;-9.158;0.144;-0.22;0.1;-0.019;-0.004;0.046;-0.029;0.0;-2.8;33.6;48.88;4340;2018-04-16 22:33:47:145
-3.741;-9.052;0.122;-3.504;-9.158;0.144;-0.22;0.1;-0.019;-0.007;0.027;-0.024;0.0;-2.7;33.6;48.88;4350;2018-04-16 22:33:47:155
-3.727;-9.049;0.146;-3.502;-9.159;0.14;-0.224;0.11;0.006;-0.013;0.009;-0.021;0.0;-2.7;33.6;48.88;4359;2018-04-16 22:33:47:164
-3.718;-9.039;0.152;-3.502;-9.159;0.14;-0.224;0.11;0.006;-0.011;-0.012;-0.015;0.0;-2.7;33.6;48.88;4370;2018-04-16 22:33:47:175
-3.718;-9.039;0.152;-3.502;-9.159;0.139;-0.212;0.125;0.036;-0.011;-0.012;-0.015;0.0;-2.7;33.6;48.88;4380;2018-04-16 22:33:47:185
-3.701;-9.031;0.182;-3.502;-9.159;0.139;-0.212;0.125;0.036;-0.013;-0.016;-0.012;0.0;-2.8;33.5;48.88;4390;2018-04-16 22:33:47:195
-3.701;-9.031;0.182;-3.501;-9.159;0.138;-0.164;0.146;0.047;-0.013;-0.016;-0.012;0.0;-2.8;33.5;48.88;4400;2018-04-16 22:33:47:205
-3.638;-9.014;0.183;-3.501;-9.159;0.138;-0.164;0.146;0.047;-0.01;-0.007;-0.01;0.0;-2.8;33.5;48.88;4410;2018-04-16 22:33:47:215
-3.637;-9.035;0.168;-3.501;-9.159;0.137;-0.136;0.125;0.03;-0.005;0.004;-0.013;0.0;-2.8;33.5;48.88;4420;2018-04-16 22:33:47:225
-3.637;-9.035;0.168;-3.501;-9.159;0.137;-0.136;0.125;0.03;0.007;0.023;-0.015;0.1;-2.8;33.6;48.88;4430;2018-04-16 22:33:47:235
-3.618;-9.085;0.145;-3.5;-9.16;0.137;-0.118;0.075;0.008;0.007;0.023;-0.015;0.1;-2.8;33.6;48.88;4440;2018-04-16 22:33:47:245
-3.62;-9.07;0.121;-3.5;-9.16;0.137;-0.118;0.075;0.008;0.009;0.037;-0.015;0.1;-2.8;33.5;48.88;4451;2018-04-16 22:33:47:256
-3.62;-9.07;0.121;-3.498;-9.16;0.136;-0.118;0.088;-0.038;0.009;0.037;-0.015;0.1;-2.8;33.5;48.88;4460;2018-04-16 22:33:47:265
-3.613;-9.078;0.086;-3.498;-9.16;0.136;-0.118;0.088;-0.038;0.011;0.035;-0.012;0.1;-2.8;33.5;48.88;4470;2018-04-16 22:33:47:275
-3.613;-9.078;0.086;-3.498;-9.16;0.136;-0.118;0.088;-0.038;0.011;0.035;-0.012;0.1;-2.8;33.5;48.88;4480;2018-04-16 22:33:47:285
-3.601;-9.106;0.104;-3.497;-9.161;0.135;-0.104;0.054;-0.031;0.016;0.037;-0.015;0.1;-2.8;33.5;48.88;4490;2018-04-16 22:33:47:295
-3.612;-9.1;0.11;-3.496;-9.161;0.134;-0.116;0.061;-0.024;0.01;0.043;-0.013;0.1;-2.8;33.6;48.88;4500;2018-04-16 22:33:47:305
-3.6;-9.074;0.135;-3.496;-9.161;0.134;-0.116;0.061;-0.024;0.009;0.06;-0.013;0.1;-2.8;33.6;48.88;4509;2018-04-16 22:33:47:314
-3.6;-9.074;0.135;-3.495;-9.162;0.131;-0.1;0.101;0.0;0.004;0.072;-0.011;0.1;-2.8;33.6;48.88;4520;2018-04-16 22:33:47:325
-3.571;-9.067;0.109;-3.495;-9.162;0.131;-0.1;0.101;0.0;0.004;0.078;-0.01;0.1;-2.8;33.6;48.88;4530;2018-04-16 22:33:47:335
-3.546;-9.072;0.095;-3.494;-9.162;0.126;-0.063;0.095;-0.022;0.005;0.072;-0.009;0.1;-2.9;33.5;48.88;4540;2018-04-16 22:33:47:345
-3.546;-9.072;0.095;-3.494;-9.162;0.126;-0.063;0.095;-0.022;0.005;0.064;-0.009;0.1;-2.9;33.5;48.88;4550;2018-04-16 22:33:47:355
-3.527;-9.07;0.102;-3.493;-9.162;0.122;-0.046;0.096;-0.022;0.005;0.064;-0.009;0.1;-2.9;33.6;48.88;4560;2018-04-16 22:33:47:365
-3.522;-9.067;0.134;-3.493;-9.163;0.121;-0.029;0.096;0.013;0.002;0.046;-0.009;0.1;-2.9;33.6;48.88;4570;2018-04-16 22:33:47:375
-3.522;-9.067;0.134;-3.493;-9.163;0.121;-0.029;0.096;0.013;0.002;0.046;-0.009;0.0;-3.0;33.6;48.88;4579;2018-04-16 22:33:47:384
-3.517;-9.109;0.182;-3.492;-9.163;0.12;-0.025;0.054;0.062;0.007;0.028;-0.007;0.0;-3.0;33.6;48.88;4590;2018-04-16 22:33:47:395
-3.524;-9.142;0.186;-3.492;-9.163;0.12;-0.025;0.054;0.062;0.006;0.02;-0.009;0.0;-3.0;33.5;48.88;4600;2018-04-16 22:33:47:405
-3.524;-9.142;0.186;-3.491;-9.163;0.12;-0.026;0.026;0.074;0.009;0.013;-0.007;0.0;-3.0;33.5;48.88;4610;2018-04-16 22:33:47:415
-3.523;-9.141;0.198;-3.491;-9.163;0.12;-0.026;0.026;0.074;0.009;0.013;-0.007;0.1;-3.0;33.7;48.88;4620;2018-04-16 22:33:47:425
-3.517;-9.135;0.174;-3.49;-9.164;0.123;-0.027;0.029;0.05;0.02;0.006;-0.011;0.1;-3.0;33.7;48.88;4630;2018-04-16 22:33:47:435
-3.517;-9.141;0.166;-3.488;-9.165;0.127;-0.054;0.023;0.039;0.024;0.006;-0.015;0.1;-3.0;33.7;48.67;4640;2018-04-16 22:33:47:445
-3.542;-9.141;0.166;-3.488;-9.165;0.127;-0.054;0.023;0.039;0.024;0.006;-0.015;0.1;-3.0;33.7;48.67;4650;2018-04-16 22:33:47:455
-3.549;-9.134;0.109;-3.488;-9.165;0.127;-0.054;0.023;0.039;0.028;0.01;-0.018;0.1;-2.9;33.9;48.67;4659;2018-04-16 22:33:47:464
-3.549;-9.134;0.109;-3.485;-9.165;0.132;-0.056;0.039;-0.031;0.027;0.013;-0.018;0.1;-2.9;33.9;48.67;4670;2018-04-16 22:33:47:475
-3.543;-9.136;0.062;-3.485;-9.165;0.132;-0.056;0.039;-0.031;0.027;0.013;-0.018;0.1;-3.0;33.9;48.67;4680;2018-04-16 22:33:47:485
-3.541;-9.143;0.043;-3.482;-9.166;0.135;-0.066;0.033;-0.092;0.027;0.01;-0.018;0.1;-3.0;33.9;48.67;4690;2018-04-16 22:33:47:495
-3.541;-9.143;0.043;-3.482;-9.166;0.135;-0.066;0.033;-0.092;0.023;0.009;-0.018;0.0;-3.0;34.0;48.67;4699;2018-04-16 22:33:47:504
-3.543;-9.14;0.043;-3.48;-9.167;0.137;-0.064;0.028;-0.094;0.007;0.018;-0.013;0.0;-3.0;34.0;48.67;4710;2018-04-16 22:33:47:515
-3.543;-9.14;0.043;-3.48;-9.167;0.137;-0.064;0.028;-0.094;0.007;0.018;-0.013;0.0;-3.0;33.9;48.67;4720;2018-04-16 22:33:47:525
-3.547;-9.136;0.059;-3.478;-9.168;0.133;-0.069;0.032;-0.075;-0.01;0.035;-0.013;0.0;-3.0;33.9;48.67;4730;2018-04-16 22:33:47:535
-3.547;-9.136;0.059;-3.478;-9.168;0.133;-0.069;0.032;-0.075;-0.02;0.044;-0.015;0.0;-3.1;34.0;48.67;4740;2018-04-16 22:33:47:545
-3.567;-9.135;0.077;-3.476;-9.169;0.125;-0.091;0.034;-0.049;-0.029;0.045;-0.016;0.0;-3.1;34.0;48.67;4749;2018-04-16 22:33:47:554
-3.567;-9.135;0.077;-3.476;-9.169;0.125;-0.091;0.034;-0.049;-0.032;0.039;-0.012;0.0;-3.1;34.1;48.67;4760;2018-04-16 22:33:47:565
-3.638;-9.067;0.14;-3.475;-9.17;0.117;-0.163;0.103;0.023;-0.033;0.032;-0.017;0.0;-3.1;34.2;48.67;4770;2018-04-16 22:33:47:575
-3.638;-9.067;0.14;-3.475;-9.17;0.117;-0.163;0.103;0.023;-0.032;0.023;-0.015;0.0;-3.1;34.2;48.67;4781;2018-04-16 22:33:47:586
-3.666;-9.015;0.196;-3.475;-9.17;0.11;-0.191;0.154;0.086;-0.022;0.01;-0.012;0.0;-3.1;34.0;48.67;4790;2018-04-16 22:33:47:595
-3.669;-9.006;0.199;-3.475;-9.17;0.11;-0.191;0.154;0.086;-0.022;0.01;-0.012;0.0;-3.1;34.0;48.67;4800;2018-04-16 22:33:47:605
-3.669;-9.006;0.199;-3.476;-9.169;0.108;-0.196;0.158;0.087;-0.012;-0.002;-0.007;0.0;-3.2;34.0;48.67;4810;2018-04-16 22:33:47:615
-3.674;-9.038;0.159;-3.476;-9.169;0.108;-0.196;0.158;0.087;-0.012;-0.002;-0.007;0.0;-3.2;34.0;48.67;4820;2018-04-16 22:33:47:625
-3.626;-9.052;0.133;-3.478;-9.169;0.109;-0.167;0.116;0.024;0.0;-0.012;0.001;0.0;-3.1;34.1;48.67;4830;2018-04-16 22:33:47:635
-3.626;-9.052;0.133;-3.478;-9.169;0.109;-0.167;0.116;0.024;0.005;-0.02;0.002;0.0;-3.1;34.1;48.67;4840;2018-04-16 22:33:47:645
-3.594;-9.097;0.086;-3.48;-9.168;0.111;-0.114;0.071;-0.025;0.009;-0.021;0.001;0.0;-3.1;34.2;48.67;4849;2018-04-16 22:33:47:654
-3.579;-9.064;0.097;-3.48;-9.168;0.111;-0.114;0.071;-0.025;0.004;-0.018;0.002;0.0;-3.1;34.2;48.67;4860;2018-04-16 22:33:47:665
-3.598;-9.039;0.135;-3.482;-9.167;0.113;-0.099;0.132;-0.005;-0.001;-0.001;0.004;0.0;-3.1;34.2;48.67;4870;2018-04-16 22:33:47:675
-3.598;-9.039;0.135;-3.482;-9.167;0.113;-0.122;0.138;0.035;-0.001;-0.001;0.004;0.0;-3.1;34.2;48.67;4880;2018-04-16 22:33:47:685
-3.616;-9.027;0.172;-3.484;-9.166;0.111;-0.122;0.138;0.035;-0.005;0.016;0.004;0.0;-3.1;34.2;48.67;4890;2018-04-16 22:33:47:695
-3.683;-9.035;0.213;-3.484;-9.166;0.111;-0.176;0.121;0.09;-0.01;0.043;-0.004;0.0;-3.1;34.2;48.67;4900;2018-04-16 22:33:47:705
-3.683;-9.035;0.213;-3.486;-9.165;0.107;-0.176;0.121;0.09;-0.004;0.059;0.0;0.0;-3.0;34.2;48.67;4909;2018-04-16 22:33:47:714
-3.712;-9.042;0.223;-3.486;-9.165;0.107;-0.225;0.123;0.117;0.004;0.057;0.0;0.0;-3.0;34.2;48.67;4920;2018-04-16 22:33:47:725
-3.724;-9.069;0.204;-3.489;-9.164;0.105;-0.235;0.095;0.099;0.011;0.045;0.0;0.0;-3.0;34.1;48.67;4930;2018-04-16 22:33:47:735
-3.724;-9.069;0.204;-3.489;-9.164;0.105;-0.235;0.095;0.099;0.011;0.045;0.0;0.0;-3.0;34.1;48.67;4939;2018-04-16 22:33:47:744
-3.719;-9.056;0.148;-3.492;-9.163;0.107;-0.228;0.107;0.041;0.029;0.016;0.006;0.0;-3.0;33.9;48.67;4950;2018-04-16 22:33:47:755
-3.713;-9.061;0.095;-3.492;-9.163;0.107;-0.228;0.107;0.041;0.042;-0.005;0.005;0.0;-3.0;33.9;48.67;4960;2018-04-16 22:33:47:765
-3.713;-9.061;0.095;-3.495;-9.162;0.116;-0.218;0.095;-0.011;0.056;-0.022;0.007;0.0;-3.1;33.9;48.67;4970;2018-04-16 22:33:47:775
-3.709;-9.069;0.086;-3.495;-9.162;0.116;-0.218;0.095;-0.011;0.053;-0.016;0.006;0.0;-3.1;33.9;49.0;4980;2018-04-16 22:33:47:785
-3.711;-9.064;0.069;-3.498;-9.161;0.127;-0.213;0.096;-0.057;0.053;-0.016;0.006;0.0;-3.1;33.8;49.0;4990;2018-04-16 22:33:47:795
-3.711;-9.064;0.069;-3.498;-9.161;0.127;-0.213;0.096;-0.057;0.04;0.032;0.009;0.0;-3.1;33.8;49.0;5000;2018-04-16 22:33:47:805
-3.703;-9.072;0.044;-3.502;-9.159;0.131;-0.201;0.088;-0.087;0.04;0.032;0.009;0.0;-3.1;33.8;49.0;5010;2018-04-16 22:33:47:815
-3.681;-9.068;0.043;-3.502;-9.159;0.131;-0.201;0.088;-0.087;0.026;0.078;0.007;0.0;-3.1;33.8;49.0;5020;2018-04-16 22:33:47:825
-3.681;-9.068;0.043;-3.505;-9.158;0.128;-0.177;0.093;-0.087;0.013;0.115;0.009;0.0;-3.1;33.8;49.0;5030;2018-04-16 22:33:47:835
-3.654;-9.043;0.03;-3.505;-9.158;0.128;-0.177;0.093;-0.087;0.013;0.115;0.009;0.0;-3.1;33.8;49.0;5039;2018-04-16 22:33:47:844
-3.632;-9.05;0.047;-3.509;-9.156;0.12;-0.131;0.108;-0.077;0.006;0.126;0.012;0.0;-3.1;33.8;49.0;5050;2018-04-16 22:33:47:855
-3.632;-9.05;0.047;-3.509;-9.156;0.12;-0.131;0.108;-0.077;0.004;0.13;0.011;0.0;-3.1;33.8;49.0;5060;2018-04-16 22:33:47:865
-3.616;-9.056;0.074;-3.513;-9.155;0.111;-0.104;0.099;-0.037;0.01;0.128;0.01;0.0;-3.1;33.9;49.0;5070;2018-04-16 22:33:47:875
-3.626;-9.081;0.109;-3.514;-9.155;0.108;-0.112;0.073;0.001;0.015;0.126;0.007;0.0;-3.1;33.9;49.0;5080;2018-04-16 22:33:47:885
-3.607;-9.073;0.098;-3.514;-9.155;0.108;-0.112;0.073;0.001;0.022;0.116;0.01;0.0;-3.1;34.0;49.0;5090;2018-04-16 22:33:47:895
-3.607;-9.073;0.098;-3.517;-9.154;0.104;-0.092;0.09;-0.019;0.022;0.116;0.01;0.0;-3.1;34.0;49.0;5100;2018-04-16 22:33:47:905
-3.61;-9.033;0.078;-3.517;-9.154;0.104;-0.092;0.09;-0.019;0.032;0.104;0.009;0.0;-3.1;34.1;49.0;5111;2018-04-16 22:33:47:916
-3.61;-9.033;0.078;-3.52;-9.152;0.103;-0.106;0.138;-0.013;0.037;0.094;0.01;0.0;-3.1;34.1;49.0;5120;2018-04-16 22:33:47:925
-3.661;-8.99;0.12;-3.52;-9.152;0.103;-0.106;0.138;-0.013;0.04;0.087;0.009;0.0;-3.1;34.2;49.0;5130;2018-04-16 22:33:47:935
-3.661;-8.99;0.12;-3.524;-9.151;0.104;-0.197;0.174;0.032;0.04;0.087;0.009;0.0;-3.1;34.2;49.0;5140;2018-04-16 22:33:47:945
-3.776;-8.953;0.141;-3.524;-9.151;0.104;-0.197;0.174;0.032;0.04;0.094;0.01;0.0;-3.1;34.1;49.0;5150;2018-04-16 22:33:47:955
-3.863;-8.939;0.146;-3.529;-9.149;0.106;-0.306;0.202;0.046;0.048;0.097;0.01;0.0;-3.1;34.1;49.0;5160;2018-04-16 22:33:47:965
-3.863;-8.939;0.146;-3.529;-9.149;0.106;-0.306;0.202;0.046;0.057;0.099;0.016;0.0;-3.1;34.0;49.0;5170;2018-04-16 22:33:47:975
-3.904;-8.936;0.141;-3.536;-9.146;0.11;-0.368;0.21;0.031;0.057;0.099;0.016;0.0;-3.1;34.0;49.0;5180;2018-04-16 22:33:47:985
-3.904;-8.936;0.141;-3.536;-9.146;0.11;-0.368;0.21;0.031;0.072;0.099;0.023;0.0;-3.0;34.0;49.0;5190;2018-04-16 22:33:47:995
-3.961;-8.932;0.069;-3.545;-9.143;0.117;-0.416;0.211;-0.048;0.087;0.094;0.028;0.0;-3.0;34.0;49.0;5200;2018-04-16 22:33:48:005
-3.979;-8.932;0.045;-3.545;-9.143;0.117;-0.416;0.211;-0.048;0.106;0.094;0.031;0.0;-3.0;34.1;49.0;5210;2018-04-16 22:33:48:015
-3.979;-8.932;0.045;-3.556;-9.138;0.129;-0.416;0.202;-0.072;0.106;0.094;0.031;0.0;-3.0;34.1;49.0;5220;2018-04-16 22:33:48:025
-3.978;-8.932;0.045;-3.556;-9.138;0.129;-0.416;0.202;-0.072;0.123;0.119;0.038;0.0;-3.0;34.1;49.0;5230;2018-04-16 22:33:48:035
-3.978;-8.932;0.045;-3.568;-9.134;0.141;-0.421;0.18;-0.091;0.126;0.145;0.039;0.0;-3.0;34.1;49.0;5240;2018-04-16 22:33:48:045
-3.99;-8.951;0.044;-3.568;-9.134;0.141;-0.421;0.18;-0.091;0.122;0.182;0.039;0.0;-3.0;34.3;49.0;5250;2018-04-16 22:33:48:055
-3.972;-8.946;0.043;-3.579;-9.129;0.147;-0.393;0.183;-0.104;0.116;0.217;0.039;0.0;-3.0;34.3;49.0;5260;2018-04-16 22:33:48:065
-3.91;-8.904;0.03;-3.579;-9.129;0.147;-0.393;0.183;-0.104;0.112;0.255;0.046;-0.1;-3.0;34.2;49.0;5270;2018-04-16 22:33:48:075
-3.91;-8.904;0.03;-3.592;-9.124;0.146;-0.318;0.213;-0.133;0.11;0.293;0.049;-0.1;-3.0;34.2;49.0;5280;2018-04-16 22:33:48:085
-3.883;-8.928;0.011;-3.592;-9.124;0.146;-0.318;0.213;-0.133;0.11;0.293;0.049;-0.1;-2.9;34.3;49.0;5290;2018-04-16 22:33:48:095
-3.883;-8.928;0.011;-3.605;-9.119;0.145;-0.267;0.194;-0.123;0.112;0.272;0.053;-0.1;-2.9;34.3;49.38;5300;2018-04-16 22:33:48:105
-3.889;-8.967;0.048;-3.605;-9.119;0.145;-0.267;0.194;-0.123;0.13;0.237;0.051;-0.2;-2.9;34.3;49.38;5310;2018-04-16 22:33:48:115
-3.874;-8.989;0.055;-3.618;-9.114;0.15;-0.251;0.116;-0.092;0.143;0.217;0.048;-0.2;-2.9;34.3;49.38;5319;2018-04-16 22:33:48:124
-3.874;-8.989;0.055;-3.618;-9.114;0.15;-0.251;0.116;-0.092;0.143;0.217;0.048;-0.3;-2.9;34.3;49.38;5330;2018-04-16 22:33:48:135
-3.807;-8.95;0.049;-3.629;-9.109;0.162;-0.178;0.16;-0.113;0.159;0.194;0.042;-0.3;-2.9;34.3;49.38;5340;2018-04-16 22:33:48:145
-3.692;-8.898;-0.034;-3.629;-9.109;0.162;-0.178;0.16;-0.113;0.181;0.184;0.037;-0.4;-2.9;34.2;49.38;5350;2018-04-16 22:33:48:155
-3.692;-8.898;-0.034;-3.637;-9.105;0.182;-0.033;0.228;-0.251;0.199;0.175;0.034;-0.4;-2.9;34.2;49.38;5360;2018-04-16 22:33:48:165
-3.652;-8.897;-0.086;-3.637;-9.105;0.182;-0.033;0.228;-0.251;0.23;0.187;0.022;-0.4;-2.8;34.1;49.38;5370;2018-04-16 22:33:48:175
-3.655;-8.945;-0.029;-3.643;-9.103;0.207;-0.012;0.158;-0.236;0.239;0.228;0.016;-0.4;-2.8;34.1;49.38;5385;2018-04-16 22:33:48:190
-3.685;-8.953;0.036;-3.643;-9.103;0.207;-0.012;0.158;-0.236;0.238;0.304;0.017;-0.5;-2.8;34.1;49.38;5390;2018-04-16 22:33:48:195
-3.685;-8.953;0.036;-3.648;-9.1;0.226;-0.02;0.17;-0.208;0.238;0.304;0.017;-0.5;-2.8;34.1;49.38;5400;2018-04-16 22:33:48:205
-3.666;-8.951;0.037;-3.648;-9.1;0.226;-0.02;0.17;-0.208;0.221;0.407;0.015;-0.6;-2.7;34.1;49.38;5409;2018-04-16 22:33:48:214
-3.666;-8.951;0.037;-3.653;-9.098;0.231;0.032;0.131;-0.213;0.206;0.451;0.022;-0.6;-2.7;34.1;49.38;5420;2018-04-16 22:33:48:225
-3.585;-9.005;-0.019;-3.653;-9.098;0.231;0.032;0.131;-0.213;0.205;0.446;0.021;-0.7;-2.7;34.0;49.38;5430;2018-04-16 22:33:48:235
-3.585;-9.005;-0.019;-3.659;-9.095;0.234;0.059;0.048;-0.261;0.205;0.446;0.021;-0.7;-2.7;34.0;49.38;5440;2018-04-16 22:33:48:245
-3.54;-9.032;-0.078;-3.659;-9.095;0.234;0.059;0.048;-0.261;0.216;0.368;0.026;-0.8;-2.6;34.0;49.38;5450;2018-04-16 22:33:48:255
-3.54;-9.032;-0.078;-3.663;-9.093;0.247;0.169;0.064;-0.369;0.227;0.288;0.021;-0.8;-2.6;34.0;49.38;5460;2018-04-16 22:33:48:265
-3.461;-9.058;-0.165;-3.663;-9.093;0.247;0.169;0.064;-0.369;0.237;0.151;0.016;-0.9;-2.5;33.9;49.38;5470;2018-04-16 22:33:48:275
-3.452;-9.097;-0.286;-3.665;-9.092;0.274;0.215;0.013;-0.522;0.237;0.151;0.016;-0.9;-2.5;33.9;49.38;5480;2018-04-16 22:33:48:285
-3.478;-9.056;-0.365;-3.665;-9.092;0.274;0.215;0.013;-0.522;0.237;0.038;0.007;-1.1;-2.4;34.0;49.38;5490;2018-04-16 22:33:48:295
-3.478;-9.056;-0.365;-3.665;-9.091;0.31;0.187;0.035;-0.675;0.236;-0.012;0.005;-1.1;-2.4;34.0;49.38;5500;2018-04-16 22:33:48:305
-3.472;-8.835;-0.466;-3.665;-9.091;0.31;0.187;0.035;-0.675;0.23;-0.022;0.016;-1.2;-2.3;33.8;49.38;5510;2018-04-16 22:33:48:315
-3.588;-8.57;-0.543;-3.668;-9.088;0.344;0.105;0.438;-0.871;0.221;0.013;0.018;-1.2;-2.3;33.8;49.38;5520;2018-04-16 22:33:48:325
-3.588;-8.57;-0.543;-3.668;-9.088;0.344;0.105;0.438;-0.871;0.162;0.187;0.056;-1.3;-2.2;33.9;49.38;5530;2018-04-16 22:33:48:335
-3.674;-8.519;-0.648;-3.678;-9.084;0.359;0.052;0.577;-0.992;0.162;0.187;0.056;-1.3;-2.2;33.9;49.38;5541;2018-04-16 22:33:48:346
-3.88;-8.611;-0.664;-3.678;-9.084;0.359;0.052;0.577;-0.992;0.126;0.281;0.09;-1.4;-2.1;33.8;49.38;5550;2018-04-16 22:33:48:355
-3.88;-8.611;-0.664;-3.703;-9.074;0.34;-0.269;0.356;-0.907;0.045;0.38;0.126;-1.4;-2.1;33.8;49.38;5560;2018-04-16 22:33:48:365
-4.079;-8.833;-0.454;-3.703;-9.074;0.34;-0.269;0.356;-0.907;-0.053;0.441;0.18;-1.5;-2.1;33.8;49.38;5570;2018-04-16 22:33:48:375
-4.179;-8.979;-0.333;-3.741;-9.06;0.29;-0.438;0.081;-0.623;-0.053;0.441;0.18;-1.5;-2.1;33.8;49.38;5581;2018-04-16 22:33:48:386
-4.07;-9.416;-0.257;-3.741;-9.06;0.29;-0.438;0.081;-0.623;-0.171;0.436;0.227;-1.6;-2.0;33.8;49.38;5591;2018-04-16 22:33:48:396
-4.07;-9.416;-0.257;-3.79;-9.042;0.217;-0.21;-0.469;-0.447;-0.265;0.373;0.275;-1.6;-2.0;33.8;49.38;5601;2018-04-16 22:33:48:406
-3.782;-9.705;-0.2;-3.79;-9.042;0.217;-0.21;-0.469;-0.447;-0.407;0.191;0.34;-1.8;-1.9;33.7;49.38;5610;2018-04-16 22:33:48:415
-3.126;-9.708;-0.071;-3.85;-9.018;0.13;0.525;-0.705;-0.286;-0.407;0.191;0.34;-1.8;-1.9;33.7;49.8;5620;2018-04-16 22:33:48:425
-3.126;-9.708;-0.071;-3.85;-9.018;0.13;0.525;-0.705;-0.286;-0.457;-0.103;0.395;-1.9;-1.8;33.7;49.8;5630;2018-04-16 22:33:48:435
-2.52;-9.76;0.171;-3.915;-8.991;0.068;1.395;-0.769;0.103;-0.411;-0.293;0.413;-1.9;-1.8;33.7;49.8;5639;2018-04-16 22:33:48:444
-1.933;-10.045;0.053;-3.915;-8.991;0.068;1.395;-0.769;0.103;-0.314;-0.568;0.378;-1.9;-1.6;33.8;49.8;5650;2018-04-16 22:33:48:455
-1.933;-10.045;0.053;-3.97;-8.967;0.058;2.163;-1.137;-0.015;-0.25;-0.787;0.323;-1.9;-1.6;33.8;49.8;5659;2018-04-16 22:33:48:464
-1.492;-10.235;0.034;-3.988;-8.959;0.074;2.496;-1.276;-0.04;-0.177;-1.02;0.238;-2.0;-1.6;33.8;49.8;5670;2018-04-16 22:33:48:475
-1.492;-10.235;0.034;-3.988;-8.959;0.074;2.496;-1.276;-0.04;-0.177;-1.02;0.238;-2.0;-1.6;33.8;49.8;5680;2018-04-16 22:33:48:485
-0.786;-9.965;0.134;-3.995;-8.955;0.152;3.208;-1.01;-0.018;-0.068;-1.327;0.099;-2.0;-1.6;33.8;49.8;5690;2018-04-16 22:33:48:495
-0.786;-9.965;0.134;-3.995;-8.955;0.152;3.208;-1.01;-0.018;0.015;-1.483;-0.006;-2.0;-1.6;33.8;49.8;5700;2018-04-16 22:33:48:505
-0.948;-9.531;0.482;-3.951;-8.971;0.284;3.003;-0.56;0.198;0.109;-1.582;-0.097;-2.0;-1.6;33.8;49.8;5710;2018-04-16 22:33:48:515
-0.948;-9.531;0.482;-3.951;-8.971;0.284;3.003;-0.56;0.198;0.202;-1.559;-0.205;-2.0;-1.6;33.8;49.8;5720;2018-04-16 22:33:48:525
-2.513;-9.236;1.21;-3.88;-8.995;0.449;1.367;-0.24;0.761;0.297;-1.34;-0.288;-1.9;-1.5;33.8;49.8;5730;2018-04-16 22:33:48:535
-3.078;-9.011;1.196;-3.88;-8.995;0.449;1.367;-0.24;0.761;0.393;-0.942;-0.312;-1.9;-1.5;33.8;49.8;5740;2018-04-16 22:33:48:545
-3.078;-9.011;1.196;-3.81;-9.017;0.583;0.51;0.237;0.347;0.446;-0.412;-0.331;-1.7;-1.5;33.8;49.8;5750;2018-04-16 22:33:48:555
-3.7;-8.842;0.527;-3.81;-9.017;0.583;0.51;0.237;0.347;0.414;0.147;-0.391;-1.7;-1.5;33.8;49.8;5761;2018-04-16 22:33:48:566
-3.7;-8.842;0.527;-3.744;-9.043;0.62;0.017;0.1;-0.535;0.314;0.608;-0.4;-1.5;-1.5;33.9;49.8;5770;2018-04-16 22:33:48:575
-3.575;-8.966;-0.166;-3.744;-9.043;0.62;0.017;0.1;-0.535;0.187;0.858;-0.346;-1.5;-1.5;33.9;49.8;5780;2018-04-16 22:33:48:585
-3.575;-8.966;-0.166;-3.695;-9.066;0.573;0.233;0.037;-0.828;0.089;0.892;-0.29;-1.4;-1.4;33.8;49.8;5790;2018-04-16 22:33:48:595
-3.371;-9.051;-0.204;-3.695;-9.066;0.573;0.233;0.037;-0.828;0.055;0.764;-0.238;-1.4;-1.4;33.8;49.8;5800;2018-04-16 22:33:48:605
-3.371;-9.051;-0.204;-3.695;-9.066;0.573;0.233;0.037;-0.828;0.055;0.764;-0.238;-1.3;-1.4;33.8;49.8;5810;2018-04-16 22:33:48:615
-3.327;-9.097;-0.072;-3.661;-9.082;0.53;0.334;-0.014;-0.602;0.093;0.533;-0.183;-1.2;-1.4;33.8;49.8;5820;2018-04-16 22:33:48:625
-3.327;-9.097;-0.072;-3.661;-9.082;0.53;0.334;-0.014;-0.602;0.149;-0.1;-0.029;-1.2;-1.4;33.8;49.8;5831;2018-04-16 22:33:48:636
-3.249;-9.166;0.395;-3.636;-9.09;0.561;0.387;-0.076;-0.166;0.109;-0.198;0.001;-1.1;-1.3;33.6;49.8;5839;2018-04-16 22:33:48:644
-3.493;-9.07;0.387;-3.636;-9.09;0.561;0.387;-0.076;-0.166;0.066;-0.259;0.032;-1.1;-1.3;33.6;49.8;5850;2018-04-16 22:33:48:655
-3.493;-9.07;0.387;-3.637;-9.088;0.59;0.144;0.018;-0.203;0.028;-0.321;0.055;-1.0;-1.2;33.5;49.8;5860;2018-04-16 22:33:48:665
-3.695;-9.002;0.238;-3.637;-9.088;0.59;0.144;0.018;-0.203;0.028;-0.321;0.055;-1.0;-1.2;33.5;49.8;5870;2018-04-16 22:33:48:675
-4.014;-8.912;0.212;-3.646;-9.083;0.619;-0.251;0.122;-0.433;0.013;-0.473;0.071;-0.8;-1.2;33.4;49.8;5880;2018-04-16 22:33:48:685
-4.014;-8.912;0.212;-3.646;-9.083;0.619;-0.251;0.122;-0.433;0.043;-0.593;0.082;-0.8;-1.2;33.4;49.8;5890;2018-04-16 22:33:48:695
-4.286;-8.867;0.405;-3.659;-9.073;0.677;-0.627;0.206;-0.272;0.101;-0.69;0.095;-0.6;-1.1;33.5;49.8;5900;2018-04-16 22:33:48:705
-4.531;-8.827;0.615;-3.659;-9.073;0.677;-0.627;0.206;-0.272;0.197;-0.726;0.11;-0.6;-1.1;33.5;49.8;5910;2018-04-16 22:33:48:715
-4.531;-8.827;0.615;-3.675;-9.06;0.766;-0.935;0.201;-0.061;0.268;-0.683;0.126;-0.4;-1.0;33.5;49.8;5920;2018-04-16 22:33:48:725
-4.7;-8.807;0.848;-3.675;-9.06;0.766;-0.935;0.201;-0.061;0.268;-0.683;0.126;-0.4;-1.0;33.5;49.8;5930;2018-04-16 22:33:48:735
-4.72;-8.751;0.947;-3.698;-9.041;0.874;-1.023;0.29;0.073;0.409;-0.535;0.142;-0.2;-0.9;33.4;51.95;5940;2018-04-16 22:33:48:745
-4.72;-8.751;0.947;-3.698;-9.041;0.874;-1.023;0.29;0.073;0.594;-0.32;0.148;-0.2;-0.9;33.4;51.95;5950;2018-04-16 22:33:48:755
-4.556;-8.617;1.001;-3.728;-9.015;1.005;-0.829;0.398;-0.005;0.718;-0.125;0.17;0.0;-0.8;33.3;51.95;5960;2018-04-16 22:33:48:765
-3.965;-8.8;0.609;-3.728;-9.015;1.005;-0.829;0.398;-0.005;0.808;0.092;0.205;0.0;-0.8;33.3;51.95;5970;2018-04-16 22:33:48:775
-3.965;-8.8;0.609;-3.769;-8.982;1.138;0.059;0.146;-0.754;0.858;0.291;0.216;0.2;-0.6;33.3;51.95;5980;2018-04-16 22:33:48:785
-3.401;-8.996;-0.024;-3.769;-8.982;1.138;0.059;0.146;-0.754;0.858;0.291;0.216;0.2;-0.6;33.3;51.95;5989;2018-04-16 22:33:48:794
-2.934;-9.219;-0.611;-3.812;-8.949;1.249;0.672;-0.217;-1.671;0.88;0.461;0.208;0.3;-0.4;33.1;51.95;5999;2018-04-16 22:33:48:804
-2.934;-9.219;-0.611;-3.812;-8.949;1.249;0.672;-0.217;-1.671;0.875;0.518;0.221;0.3;-0.4;33.1;51.95;6010;2018-04-16 22:33:48:815
-2.546;-9.4;-0.825;-3.853;-8.917;1.344;1.307;-0.482;-2.168;0.836;0.553;0.208;0.3;-0.2;33.1;51.95;6020;2018-04-16 22:33:48:825
-2.26;-9.64;-0.836;-3.853;-8.917;1.344;1.307;-0.482;-2.168;0.764;0.613;0.191;0.3;-0.2;33.1;51.95;6029;2018-04-16 22:33:48:834
-2.26;-9.64;-0.836;-3.892;-8.89;1.412;1.685;-0.804;-2.191;0.66;0.689;0.18;0.4;0.0;33.1;51.95;6040;2018-04-16 22:33:48:845
-2.132;-9.849;-0.645;-3.892;-8.89;1.412;1.685;-0.804;-2.191;0.54;0.755;0.173;0.4;0.0;33.1;51.95;6049;2018-04-16 22:33:48:854
-2.119;-10.031;-0.536;-3.934;-8.867;1.438;1.815;-1.163;-1.974;0.484;0.772;0.175;0.3;0.1;33.0;51.95;6060;2018-04-16 22:33:48:865
-2.119;-10.031;-0.536;-3.934;-8.867;1.438;1.815;-1.163;-1.974;0.32;0.698;0.176;0.3;0.1;33.0;51.95;6070;2018-04-16 22:33:48:875
-2.143;-10.542;-0.294;-3.983;-8.845;1.44;1.84;-1.697;-1.734;0.32;0.698;0.176;0.3;0.4;33.1;51.95;6080;2018-04-16 22:33:48:885
-2.218;-11.12;-0.011;-3.983;-8.845;1.44;1.84;-1.697;-1.734;0.294;0.596;0.161;0.3;0.4;33.1;51.95;6090;2018-04-16 22:33:48:895
-2.218;-11.12;-0.011;-4.024;-8.825;1.447;1.813;-2.378;-1.403;0.275;0.486;0.13;0.3;0.7;33.1;51.95;6100;2018-04-16 22:33:48:905
-2.082;-11.355;0.121;-4.024;-8.825;1.447;1.813;-2.378;-1.403;0.249;0.397;0.075;0.3;0.7;33.1;51.95;6110;2018-04-16 22:33:48:915
-1.772;-11.493;0.102;-4.041;-8.815;1.463;2.138;-2.655;-1.321;0.235;0.25;0.021;0.3;1.0;33.0;51.95;6120;2018-04-16 22:33:48:925
-1.772;-11.493;0.102;-4.041;-8.815;1.463;2.138;-2.655;-1.321;0.182;0.048;-0.13;0.3;1.0;33.0;51.95;6130;2018-04-16 22:33:48:935
-1.7;-11.69;-0.17;-4.017;-8.821;1.491;2.317;-2.869;-1.661;0.12;-0.13;-0.252;0.3;1.3;33.1;51.95;6140;2018-04-16 22:33:48:945
-2.217;-12.078;-0.699;-4.017;-8.821;1.491;2.317;-2.869;-1.661;0.033;-0.346;-0.358;0.3;1.3;33.1;51.95;6150;2018-04-16 22:33:48:955
-2.217;-12.078;-0.699;-3.942;-8.849;1.523;1.538;-3.25;-2.306;0.033;-0.346;-0.358;0.2;1.5;33.0;51.95;6160;2018-04-16 22:33:48:965
-2.989;-11.99;-1.118;-3.942;-8.849;1.523;1.538;-3.25;-2.306;-0.134;-0.538;-0.481;0.2;1.5;33.0;51.95;6170;2018-04-16 22:33:48:975
-3.922;-11.19;-1.651;-3.836;-8.896;1.519;0.195;-2.555;-3.028;-0.294;-0.401;-0.544;0.2;1.9;33.0;51.95;6180;2018-04-16 22:33:48:985
-3.922;-11.19;-1.651;-3.836;-8.896;1.519;0.195;-2.555;-3.028;-0.54;-0.029;-0.613;0.2;1.9;33.0;51.95;6190;2018-04-16 22:33:48:995
-4.597;-10.712;-1.608;-3.728;-8.966;1.372;-0.868;-1.746;-2.979;-1.07;0.688;-0.671;0.1;2.2;32.8;51.95;6200;2018-04-16 22:33:49:005
-4.907;-10.168;-0.889;-3.728;-8.966;1.372;-0.868;-1.746;-2.979;-1.432;1.092;-0.665;0.1;2.2;32.8;51.95;6210;2018-04-16 22:33:49:015
-4.907;-10.168;-0.889;-3.636;-9.049;1.032;-1.277;-0.945;-1.734;-1.432;1.092;-0.665;0.1;2.4;32.8;51.95;6220;2018-04-16 22:33:49:025
-5.043;-9.458;-0.309;-3.636;-9.049;1.032;-1.277;-0.945;-1.734;-1.826;1.466;-0.635;0.1;2.4;32.8;51.95;6229;2018-04-16 22:33:49:034
-5.431;-8.583;0.02;-3.55;-9.123;0.579;-1.69;0.194;-0.639;-1.949;1.519;-0.61;0.0;2.5;32.8;51.95;6239;2018-04-16 22:33:49:044
-5.431;-8.583;0.02;-3.55;-9.123;0.579;-1.69;0.194;-0.639;-1.998;1.467;-0.596;0.0;2.5;32.8;51.95;6250;2018-04-16 22:33:49:055
-6.096;-8.327;0.372;-3.464;-9.174;0.11;-2.631;0.847;0.263;-2.021;1.399;-0.572;-0.2;2.7;32.8;51.95;6260;2018-04-16 22:33:49:065
-6.376;-8.74;1.417;-3.464;-9.174;0.11;-2.631;0.847;0.263;-2.035;1.382;-0.549;-0.3;2.7;32.8;51.95;6270;2018-04-16 22:33:49:075
-6.376;-8.74;1.417;-3.361;-9.206;-0.358;-3.145;0.357;2.079;-2.018;1.407;-0.541;-0.3;2.7;32.8;51.42;6280;2018-04-16 22:33:49:085
-6.491;-8.884;2.395;-3.361;-9.206;-0.358;-3.145;0.357;2.079;-1.949;1.523;-0.549;-0.7;2.6;32.7;51.42;6290;2018-04-16 22:33:49:095
-6.46;-9.011;2.699;-3.239;-9.221;-0.81;-3.221;0.286;3.473;-1.819;1.68;-0.569;-0.7;2.6;32.7;51.42;6300;2018-04-16 22:33:49:105
-6.46;-9.011;2.699;-3.239;-9.221;-0.81;-3.221;0.286;3.473;-1.553;1.87;-0.59;-1.1;2.5;32.6;51.42;6310;2018-04-16 22:33:49:115
-6.559;-9.394;2.975;-3.092;-9.227;-1.215;-3.467;-0.167;4.19;-1.553;1.87;-0.59;-1.1;2.5;32.6;51.42;6320;2018-04-16 22:33:49:125
-7.324;-9.732;3.955;-3.092;-9.227;-1.215;-3.467;-0.167;4.19;-1.201;2.072;-0.56;-1.6;2.2;32.6;51.42;6330;2018-04-16 22:33:49:135
-6.451;-9.134;3.496;-2.938;-9.228;-1.542;-3.943;-0.102;5.721;-0.93;2.437;-0.457;-2.3;1.4;32.2;51.42;6340;2018-04-16 22:33:49:145
-6.451;-9.134;3.496;-2.938;-9.228;-1.542;-3.943;-0.102;5.721;-0.436;3.24;-0.378;-2.3;1.4;32.2;51.42;6350;2018-04-16 22:33:49:155
-5.288;-9.612;-3.502;-2.765;-9.232;-1.814;-2.522;-0.38;-1.687;-0.436;3.24;-0.378;-4.1;0.2;32.1;51.42;6360;2018-04-16 22:33:49:165
-4.179;-9.327;-4.676;-2.765;-9.232;-1.814;-2.522;-0.38;-1.687;-0.648;2.841;-0.359;-4.7;0.0;32.0;51.42;6370;2018-04-16 22:33:49:175
-3.65;-9.129;-4.007;-2.614;-9.216;-2.1;-1.036;0.087;-1.907;-0.974;2.098;-0.271;-6.0;-0.8;32.0;51.42;6380;2018-04-16 22:33:49:185
-3.65;-9.129;-4.007;-2.614;-9.216;-2.1;-1.036;0.087;-1.907;-0.974;2.098;-0.271;-6.0;-0.8;32.0;51.42;6390;2018-04-16 22:33:49:195
-0.089;-9.765;0.703;-2.491;-9.204;-2.29;2.402;-0.56;2.993;-0.728;0.638;-0.489;-7.5;-2.1;31.1;51.42;6400;2018-04-16 22:33:49:205
2.109;-11.669;-0.554;-2.491;-9.204;-2.29;2.402;-0.56;2.993;-0.252;0.368;-0.831;-7.5;-2.1;31.1;51.42;6410;2018-04-16 22:33:49:215
2.109;-11.669;-0.554;-2.316;-9.232;-2.36;4.614;-2.853;1.659;-0.202;0.52;-1.06;-8.2;-2.6;30.9;51.42;6420;2018-04-16 22:33:49:225
1.669;-12.949;-1.13;-2.207;-9.251;-2.39;3.876;-3.698;1.26;-0.21;0.607;-1.135;-8.2;-2.6;30.9;51.42;6430;2018-04-16 22:33:49:235
1.669;-12.949;-1.13;-2.207;-9.251;-2.39;3.876;-3.698;1.26;-0.21;0.607;-1.135;-9.0;-2.7;30.1;51.42;6440;2018-04-16 22:33:49:245
-1.245;-11.565;-2.137;-1.968;-9.285;-2.467;0.723;-2.28;0.33;-0.303;0.496;-1.075;-8.7;-3.6;31.0;51.42;6450;2018-04-16 22:33:49:255
-3.208;-9.521;-1.787;-1.968;-9.285;-2.467;0.723;-2.28;0.33;-0.378;0.053;-1.005;-8.7;-3.6;31.0;51.42;6460;2018-04-16 22:33:49:265
-3.208;-9.521;-1.787;-1.802;-9.3;-2.537;-2.15;0.064;1.5;-0.552;-0.584;-0.902;-9.5;-4.0;29.4;51.42;6470;2018-04-16 22:33:49:275
-4.889;-8.472;-0.303;-1.802;-9.3;-2.537;-2.15;0.064;1.5;-0.552;-0.584;-0.902;-9.5;-4.0;29.4;51.42;6480;2018-04-16 22:33:49:285
-5.264;-6.715;-0.12;-1.713;-9.291;-2.629;-3.357;1.96;2.507;-0.787;-0.721;-0.737;-9.4;-4.1;31.1;51.42;6490;2018-04-16 22:33:49:295
-5.264;-6.715;-0.12;-1.713;-9.291;-2.629;-3.357;1.96;2.507;-0.985;-0.691;-0.732;-9.4;-4.1;31.1;51.42;6499;2018-04-16 22:33:49:304
-5.559;-5.364;-0.01;-1.617;-9.256;-2.806;-3.943;3.892;2.797;-1.191;-0.656;-0.716;-9.7;-4.4;29.7;51.42;6510;2018-04-16 22:33:49:315
-5.559;-5.364;-0.01;-1.617;-9.256;-2.806;-3.943;3.892;2.797;-1.301;-0.583;-0.696;-9.7;-4.4;29.7;51.42;6521;2018-04-16 22:33:49:326
-5.426;-4.566;-0.151;-1.523;-9.202;-3.027;-3.831;4.798;2.437;-1.232;-0.456;-0.655;-9.3;-5.0;30.5;51.42;6530;2018-04-16 22:33:49:335
-5.426;-4.566;-0.151;-1.523;-9.202;-3.027;-3.831;4.798;2.437;-1.232;-0.456;-0.655;-9.6;-5.3;29.9;51.42;6540;2018-04-16 22:33:49:345
-4.724;-4.436;-1.36;-1.446;-9.15;-3.219;-3.278;4.713;1.859;-1.02;-0.367;-0.496;-9.2;-5.2;30.8;51.42;6550;2018-04-16 22:33:49:355
-4.724;-4.436;-1.36;-1.446;-9.15;-3.219;-3.278;4.713;1.859;-0.79;-0.285;-0.331;-9.2;-5.2;30.8;51.42;6560;2018-04-16 22:33:49:365
-3.887;-4.41;-1.751;-1.417;-9.113;-3.335;-2.47;4.703;1.583;-0.407;-0.158;-0.086;-9.4;-5.2;30.2;51.42;6570;2018-04-16 22:33:49:375
-3.887;-4.41;-1.751;-1.417;-9.113;-3.335;-2.47;4.703;1.583;-0.407;-0.158;-0.086;-9.4;-5.2;30.2;51.42;6580;2018-04-16 22:33:49:385
-3.231;-4.307;-1.42;-1.429;-9.101;-3.362;-1.802;4.794;1.942;-0.013;0.012;0.117;-9.7;-5.1;30.4;51.42;6590;2018-04-16 22:33:49:395
-2.673;-4.478;-1.213;-1.452;-9.106;-3.339;-1.47;4.714;2.012;0.246;0.064;0.246;-9.7;-5.1;30.4;56.93;6600;2018-04-16 22:33:49:405
-2.673;-4.478;-1.213;-1.452;-9.106;-3.339;-1.47;4.714;2.012;0.246;0.064;0.246;-10.0;-5.5;30.3;56.93;6610;2018-04-16 22:33:49:415
-1.595;-5.258;-1.443;-1.526;-9.133;-3.23;-0.068;3.875;1.788;0.689;0.004;0.461;-10.0;-5.5;30.3;56.93;6620;2018-04-16 22:33:49:425
-0.542;-6.341;-2.002;-1.526;-9.133;-3.23;-0.068;3.875;1.788;0.828;-0.077;0.538;-10.3;-5.8;30.1;56.93;6630;2018-04-16 22:33:49:435
-0.542;-6.341;-2.002;-1.637;-9.169;-3.068;1.388;2.542;0.909;0.896;-0.161;0.586;-10.3;-5.8;30.1;56.93;6640;2018-04-16 22:33:49:445
0.414;-7.59;-2.689;-1.637;-9.169;-3.068;1.388;2.542;0.909;0.896;-0.246;0.6;-10.5;-6.1;29.9;56.93;6650;2018-04-16 22:33:49:455
0.414;-7.59;-2.689;-1.751;-9.202;-2.903;2.736;0.448;-0.32;0.827;-0.34;0.563;-10.5;-6.1;29.9;56.93;6660;2018-04-16 22:33:49:465
1.281;-10.319;-4.289;-1.751;-9.202;-2.903;2.736;0.448;-0.32;0.616;-0.483;0.423;-10.6;-6.4;29.9;56.93;6672;2018-04-16 22:33:49:477
1.458;-11.644;-5.43;-1.851;-9.218;-2.788;3.309;-2.426;-2.642;0.42;-0.681;0.321;-10.6;-6.4;29.9;56.93;6680;2018-04-16 22:33:49:485
2.658;-13.502;-6.634;-1.851;-9.218;-2.788;3.309;-2.426;-2.642;0.186;-0.965;0.187;-10.6;-6.5;29.8;56.93;6690;2018-04-16 22:33:49:495
2.658;-13.502;-6.634;-1.925;-9.218;-2.739;4.771;-4.745;-3.545;-0.082;-1.255;-0.034;-10.6;-6.5;29.8;56.93;6700;2018-04-16 22:33:49:505
2.503;-14.783;-4.542;-1.925;-9.218;-2.739;4.771;-4.745;-3.545;-0.209;-1.355;-0.412;-10.5;-6.6;29.7;56.93;6710;2018-04-16 22:33:49:515
2.503;-14.783;-4.542;-1.918;-9.223;-2.726;3.935;-5.335;-1.28;-0.194;-1.038;-0.602;-10.5;-6.6;29.8;56.93;6720;2018-04-16 22:33:49:525
1.779;-13.922;-4.561;-1.918;-9.223;-2.726;3.935;-5.335;-1.28;-0.194;-1.038;-0.602;-10.5;-6.6;29.8;56.93;6730;2018-04-16 22:33:49:535
0.508;-12.219;-6.864;-1.815;-9.236;-2.753;2.323;-2.983;-4.111;-0.348;-0.551;-0.833;-10.3;-6.7;29.8;56.93;6740;2018-04-16 22:33:49:545
0.508;-12.219;-6.864;-1.815;-9.236;-2.753;2.323;-2.983;-4.111;-0.525;-0.385;-0.881;-10.3;-6.7;29.8;56.93;6750;2018-04-16 22:33:49:555
-0.132;-9.785;-8.297;-1.675;-9.235;-2.842;1.543;-0.55;-5.455;-0.588;-0.437;-0.885;-10.1;-6.9;29.7;56.93;6760;2018-04-16 22:33:49:565
0.085;-7.819;-6.511;-1.675;-9.235;-2.842;1.543;-0.55;-5.455;-0.373;-0.651;-0.801;-10.1;-6.9;29.7;56.93;6770;2018-04-16 22:33:49:575
0.085;-7.819;-6.511;-1.56;-9.237;-2.902;1.517;1.788;-3.012;-0.077;-0.688;-0.673;-9.9;-6.9;29.9;56.93;6781;2018-04-16 22:33:49:586
-0.784;-6.938;-3.355;-1.56;-9.237;-2.902;1.517;1.788;-3.012;-0.077;-0.688;-0.673;-9.9;-6.9;29.9;56.93;6790;2018-04-16 22:33:49:595
-0.784;-6.938;-3.355;-1.56;-9.237;-2.902;1.517;1.788;-3.012;-0.077;-0.688;-0.673;-9.9;-6.9;29.9;56.93;6800;2018-04-16 22:33:49:605
-0.784;-6.938;-3.355;-1.56;-9.237;-2.902;1.517;1.788;-3.012;-0.077;-0.688;-0.673;-9.9;-6.9;29.9;56.93;6810;2018-04-16 22:33:49:615
-2.893;-6.539;-2.205;-1.526;-9.265;-2.829;-1.367;2.726;0.624;0.446;-0.732;-0.28;-9.6;-7.0;29.8;56.93;6820;2018-04-16 22:33:49:625
-2.893;-6.539;-2.205;-1.526;-9.265;-2.829;-1.367;2.726;0.624;0.606;-0.954;0.599;-9.6;-7.0;29.8;56.93;6830;2018-04-16 22:33:49:635
-7.087;-8.134;0.437;-1.953;-9.27;-2.535;-5.134;1.136;2.972;0.772;-0.918;1.133;-9.2;-6.8;30.1;56.93;6840;2018-04-16 22:33:49:645
-7.337;-12.668;0.124;-1.953;-9.27;-2.535;-5.134;1.136;2.972;1.163;-1.09;1.147;-9.2;-6.8;30.1;56.93;6850;2018-04-16 22:33:49:655
-7.337;-12.668;0.124;-2.211;-9.279;-2.277;-4.586;-4.726;0.752;1.344;-0.88;0.924;-9.0;-6.7;30.1;56.93;6860;2018-04-16 22:33:49:665
-5.04;-18.435;-6.603;-2.211;-9.279;-2.277;-4.586;-4.726;0.752;0.745;0.33;0.28;-9.0;-6.7;30.1;56.93;6870;2018-04-16 22:33:49:675
-5.746;-17.711;-4.031;-2.242;-9.296;-2.172;-4.052;-11.191;-3.637;-0.099;1.732;-0.167;-8.6;-6.3;30.3;56.93;6880;2018-04-16 22:33:49:685
-5.746;-17.711;-4.031;-2.242;-9.296;-2.172;-4.052;-11.191;-3.637;-0.246;2.078;-0.038;-8.6;-6.3;30.3;56.93;6890;2018-04-16 22:33:49:695
-3.935;-7.614;0.893;-2.147;-9.288;-2.299;-1.788;1.675;3.192;-0.246;2.078;-0.038;-8.4;-6.0;30.4;56.93;6900;2018-04-16 22:33:49:705
-3.091;-2.837;2.389;-2.147;-9.288;-2.299;-1.788;1.675;3.192;0.117;1.8;0.165;-8.4;-5.9;30.5;56.93;6910;2018-04-16 22:33:49:715
-3.091;-2.837;2.389;-2.099;-9.297;-2.309;-0.971;6.597;4.175;0.511;1.649;0.167;-8.4;-5.9;30.5;56.71;6920;2018-04-16 22:33:49:725
-3.443;-3.109;0.812;-2.099;-9.297;-2.309;-0.971;6.597;4.175;1.03;0.845;0.213;-8.2;-5.5;30.5;56.71;6931;2018-04-16 22:33:49:736
-4.427;-4.714;-0.083;-2.087;-9.331;-2.18;-2.097;5.299;2.223;1.142;0.408;0.391;-8.2;-5.5;30.5;56.71;6940;2018-04-16 22:33:49:745
-4.427;-4.714;-0.083;-2.087;-9.331;-2.18;-2.097;5.299;2.223;1.159;0.165;0.593;-8.2;-5.2;30.6;56.71;6950;2018-04-16 22:33:49:755
-4.979;-6.873;0.97;-2.193;-9.353;-1.973;-2.786;2.48;2.942;1.15;0.194;0.805;-8.2;-5.2;30.6;56.71;6959;2018-04-16 22:33:49:764
-5.48;-8.666;0.986;-2.193;-9.353;-1.973;-2.786;2.48;2.942;1.082;0.342;0.97;-8.1;-5.0;30.5;56.71;6970;2018-04-16 22:33:49:775
-5.48;-8.666;0.986;-2.378;-9.347;-1.776;-3.246;0.367;2.621;0.887;0.513;1.034;-8.1;-5.0;30.5;56.71;6980;2018-04-16 22:33:49:785
-5.756;-9.576;0.887;-2.378;-9.347;-1.776;-3.246;0.367;2.621;0.596;0.693;1.013;-8.1;-4.7;30.5;56.71;6989;2018-04-16 22:33:49:794
-5.756;-9.576;0.887;-2.543;-9.317;-1.701;-3.775;-1.373;2.403;0.596;0.693;1.013;-8.1;-4.7;30.5;56.71;7000;2018-04-16 22:33:49:805
-5.901;-10.8;0.345;-2.543;-9.317;-1.701;-3.775;-1.373;2.403;0.147;0.778;0.99;-8.1;-4.3;30.5;56.71;7010;2018-04-16 22:33:49:815
-5.901;-10.8;0.345;-2.701;-9.267;-1.734;-2.092;-0.904;1.432;-0.099;0.611;0.955;-8.1;-4.3;30.5;56.71;7020;2018-04-16 22:33:49:825
-4.515;-10.046;-0.928;-2.701;-9.267;-1.734;-2.092;-0.904;1.432;-0.386;-0.033;0.859;-8.1;-3.9;30.3;56.71;7030;2018-04-16 22:33:49:835
-4.515;-10.046;-0.928;-2.864;-9.205;-1.8;-1.283;-0.68;0.735;-0.386;-0.033;0.859;-8.1;-3.9;30.3;56.71;7040;2018-04-16 22:33:49:845
-3.624;-9.622;-0.959;-2.864;-9.205;-1.8;-1.283;-0.68;0.735;-0.533;-1.045;0.899;-8.2;-3.5;30.3;56.71;7050;2018-04-16 22:33:49:855
-3.624;-9.622;-0.959;-2.864;-9.205;-1.8;-1.283;-0.68;0.735;-0.533;-1.045;0.899;-8.2;-3.5;30.3;56.71;7060;2018-04-16 22:33:49:865
-3.193;-9.561;-0.76;-3.081;-9.131;-1.82;-0.112;-0.431;1.06;-0.629;-1.641;0.907;-8.2;-3.2;30.3;56.71;7070;2018-04-16 22:33:49:875
-2.816;-10.028;-0.851;-3.313;-9.056;-1.784;0.498;-0.972;0.932;-0.563;-2.502;0.823;-8.3;-2.8;30.3;56.71;7080;2018-04-16 22:33:49:885
-2.148;-10.064;0.225;-3.313;-9.056;-1.784;0.498;-0.972;0.932;0.535;-4.006;0.81;-8.3;-2.8;30.3;56.71;7090;2018-04-16 22:33:49:895
-2.148;-10.064;0.225;-3.575;-9.022;-1.414;1.4;-1.046;2.017;0.535;-4.006;0.81;-8.2;-2.4;30.3;56.71;7100;2018-04-16 22:33:49:905
-2.387;-10.216;1.3;-3.575;-9.022;-1.414;1.4;-1.046;2.017;0.996;-4.051;0.535;-8.1;-2.1;30.3;56.71;7110;2018-04-16 22:33:49:915
-2.387;-10.216;1.3;-3.746;-9.012;-0.957;1.276;-1.135;2.806;1.091;-3.146;0.425;-8.1;-2.1;30.3;56.71;7120;2018-04-16 22:33:49:925
-2.106;-9.797;1.548;-3.746;-9.012;-0.957;1.276;-1.135;2.806;0.998;-0.742;0.248;-8.0;-1.9;30.3;56.71;7130;2018-04-16 22:33:49:935
-2.106;-9.797;1.548;-3.784;-9.018;-0.722;1.537;-0.681;0.909;0.998;-0.742;0.248;-7.8;-1.5;30.2;56.71;7140;2018-04-16 22:33:49:945
-2.75;-9.734;-0.575;-3.784;-9.018;-0.722;1.537;-0.681;0.909;0.5;0.915;-0.028;-7.8;-1.5;30.2;56.71;7150;2018-04-16 22:33:49:955
-2.823;-8.929;-1.238;-3.754;-9.029;-0.745;0.829;-0.217;-0.361;0.194;1.221;-0.05;-7.5;-1.1;30.2;56.71;7160;2018-04-16 22:33:49:965
-2.823;-8.929;-1.238;-3.754;-9.029;-0.745;0.829;-0.217;-0.361;-0.005;0.886;0.015;-7.5;-1.1;30.2;56.71;7170;2018-04-16 22:33:49:975
-2.538;-7.912;-0.601;-3.74;-9.03;-0.803;1.202;1.118;0.202;-0.005;0.886;0.015;-7.3;-0.6;30.1;56.71;7180;2018-04-16 22:33:49:985
-2.722;-7.952;0.218;-3.737;-9.033;-0.782;1.015;1.08;1.0;0.29;0.093;-0.023;-7.3;-0.6;30.1;56.71;7190;2018-04-16 22:33:49:995
-2.722;-7.952;0.218;-3.737;-9.033;-0.782;1.015;1.08;1.0;0.505;-0.224;-0.031;-7.4;-0.5;30.1;56.71;7200;2018-04-16 22:33:50:005
-2.729;-8.209;1.215;-3.737;-9.042;-0.665;1.007;0.834;1.88;0.607;-0.151;-0.012;-7.1;-0.2;30.2;56.71;7210;2018-04-16 22:33:50:015
-2.729;-8.209;1.215;-3.737;-9.042;-0.665;1.007;0.834;1.88;0.607;-0.151;-0.012;-7.1;-0.2;30.2;56.71;7220;2018-04-16 22:33:50:025
-3.06;-8.125;0.842;-3.734;-9.051;-0.549;0.901;0.894;1.721;0.597;0.026;-0.022;-6.7;0.1;30.2;56.71;7230;2018-04-16 22:33:50:035
-3.06;-8.125;0.842;-3.731;-9.056;-0.484;0.484;0.939;1.019;0.665;0.023;-0.032;-6.7;0.1;30.2;56.61;7240;2018-04-16 22:33:50:045
-3.412;-8.076;0.251;-3.731;-9.056;-0.484;0.484;0.939;1.019;0.812;-0.078;-0.037;-6.4;0.4;30.4;56.61;7250;2018-04-16 22:33:50:055
-3.379;-7.943;0.044;-3.727;-9.066;-0.311;0.286;1.08;0.438;0.97;-0.184;-0.023;-6.4;0.4;30.4;56.61;7260;2018-04-16 22:33:50:065
-3.379;-7.943;0.044;-3.727;-9.066;-0.311;0.286;1.08;0.438;1.067;-0.2;0.005;-6.1;0.8;30.2;56.61;7270;2018-04-16 22:33:50:075
-3.179;-7.811;-0.262;-3.73;-9.069;-0.103;0.55;1.258;-0.159;1.089;-0.132;0.021;-6.1;0.8;30.2;56.61;7280;2018-04-16 22:33:50:085
-3.227;-7.878;-0.591;-3.73;-9.069;-0.103;0.55;1.258;-0.159;1.064;-0.032;0.034;-5.9;1.1;30.3;56.61;7290;2018-04-16 22:33:50:095
-3.227;-7.878;-0.591;-3.738;-9.066;0.084;0.458;1.095;-0.774;1.019;0.044;0.059;-5.9;1.1;30.3;56.61;7300;2018-04-16 22:33:50:105
-3.53;-8.241;-0.846;-3.738;-9.066;0.084;0.458;1.095;-0.774;0.962;0.073;0.097;-5.6;1.4;30.4;56.61;7310;2018-04-16 22:33:50:115
-3.53;-8.241;-0.846;-3.762;-9.053;0.245;-0.034;0.465;-1.118;0.911;0.027;0.143;-5.6;1.4;30.4;56.61;7320;2018-04-16 22:33:50:125
-3.97;-8.853;-0.825;-3.762;-9.053;0.245;-0.034;0.465;-1.118;0.896;-0.148;0.238;-5.2;1.8;30.4;56.61;7330;2018-04-16 22:33:50:135
-3.97;-8.853;-0.825;-3.806;-9.028;0.409;-0.304;-0.163;-1.038;0.896;-0.148;0.238;-5.2;1.8;30.4;56.61;7340;2018-04-16 22:33:50:145
-3.976;-9.537;-0.413;-3.806;-9.028;0.409;-0.304;-0.163;-1.038;0.96;-0.335;0.351;-4.8;2.2;30.5;56.61;7350;2018-04-16 22:33:50:155
-3.63;-9.798;-0.277;-3.872;-8.989;0.611;0.242;-0.809;-0.888;1.008;-0.387;0.42;-4.8;2.2;30.5;56.61;7359;2018-04-16 22:33:50:164
-2.964;-9.871;-0.253;-3.872;-8.989;0.611;0.242;-0.809;-0.888;0.994;-0.364;0.459;-4.5;2.6;30.4;56.61;7370;2018-04-16 22:33:50:175
-2.964;-9.871;-0.253;-3.944;-8.942;0.812;1.177;-0.863;-1.13;0.994;-0.364;0.459;-4.5;2.6;30.4;56.61;7380;2018-04-16 22:33:50:185
-2.472;-9.662;-0.463;-3.944;-8.942;0.812;1.177;-0.863;-1.13;0.887;-0.315;0.421;-4.2;3.0;30.3;56.61;7390;2018-04-16 22:33:50:195
-2.049;-9.143;-0.634;-3.996;-8.902;0.977;1.813;-0.441;-1.57;0.826;-0.349;0.397;-4.2;3.0;30.3;56.61;7400;2018-04-16 22:33:50:205
-2.049;-9.143;-0.634;-3.996;-8.902;0.977;1.813;-0.441;-1.57;0.812;-0.415;0.354;-4.1;3.5;30.2;56.61;7410;2018-04-16 22:33:50:215
-1.956;-8.915;-0.728;-4.032;-8.866;1.147;2.076;-0.049;-1.875;0.837;-0.436;0.274;-4.1;3.5;30.2;56.61;7420;2018-04-16 22:33:50:225
-1.879;-9.242;-0.943;-4.032;-8.866;1.147;2.076;-0.049;-1.875;0.787;-0.271;0.115;-4.0;4.0;30.1;56.61;7431;2018-04-16 22:33:50:236
-1.879;-9.242;-0.943;-4.028;-8.848;1.286;2.147;-0.587;-2.222;0.787;-0.271;0.115;-4.0;4.0;30.1;56.61;7440;2018-04-16 22:33:50:245
-2.073;-9.876;-0.809;-4.028;-8.848;1.286;2.147;-0.587;-2.222;0.569;0.099;-0.062;-4.0;4.5;29.9;56.61;7450;2018-04-16 22:33:50:255
-2.474;-10.537;-0.602;-4.011;-8.847;1.342;1.537;-1.689;-1.944;0.386;0.373;-0.132;-4.0;4.5;29.9;56.61;7460;2018-04-16 22:33:50:265
-2.699;-11.297;-0.298;-4.011;-8.847;1.342;1.537;-1.689;-1.944;0.079;0.72;-0.155;-4.0;5.0;29.7;56.61;7470;2018-04-16 22:33:50:275
-2.699;-11.297;-0.298;-4.003;-8.855;1.313;1.25;-2.636;-1.515;0.079;0.72;-0.155;-4.0;5.0;29.7;56.61;7480;2018-04-16 22:33:50:285
-2.825;-11.837;0.043;-4.003;-8.855;1.313;1.25;-2.636;-1.515;0.043;0.757;-0.221;-3.9;5.5;29.5;56.61;7490;2018-04-16 22:33:50:295
-2.683;-12.081;0.14;-3.977;-8.874;1.268;1.294;-3.207;-1.128;0.108;0.707;-0.279;-3.9;5.5;29.5;56.61;7500;2018-04-16 22:33:50:305
-2.009;-12.209;-0.158;-3.977;-8.874;1.268;1.294;-3.207;-1.128;0.276;0.451;-0.337;-3.9;6.0;29.2;56.61;7510;2018-04-16 22:33:50:315
-1.615;-12.449;-0.953;-3.926;-8.895;1.281;2.088;-3.349;-1.649;0.203;0.198;-0.445;-3.9;6.0;29.2;56.61;7520;2018-04-16 22:33:50:325
-1.615;-12.449;-0.953;-3.926;-8.895;1.281;2.088;-3.349;-1.649;0.203;0.198;-0.445;-3.9;6.5;29.0;56.61;7530;2018-04-16 22:33:50:335
-1.615;-12.449;-0.953;-3.843;-8.929;1.293;2.272;-3.601;-2.804;0.035;-0.011;-0.505;-3.9;6.5;29.0;56.61;7540;2018-04-16 22:33:50:345
-1.709;-12.35;-2.2;-3.843;-8.929;1.293;2.272;-3.601;-2.804;-0.28;-0.225;-0.544;-4.0;6.9;28.7;56.61;7550;2018-04-16 22:33:50:355
-1.709;-12.35;-2.2;-3.739;-8.979;1.255;1.783;-3.108;-4.144;-0.28;-0.225;-0.544;-4.0;6.9;28.7;56.61;7560;2018-04-16 22:33:50:365
-2.54;-11.721;-2.905;-3.739;-8.979;1.255;1.783;-3.108;-4.144;-0.745;-0.18;-0.646;-4.0;7.3;28.6;56.61;7570;2018-04-16 22:33:50:375
-2.54;-11.721;-2.905;-3.613;-9.052;1.084;0.426;-2.153;-3.116;-1.151;0.035;-0.722;-4.0;7.3;28.6;51.84;7580;2018-04-16 22:33:50:385
-3.855;-10.896;-1.0;-3.613;-9.052;1.084;0.426;-2.153;-3.116;-1.655;0.391;-0.817;-4.1;7.7;28.5;51.84;7590;2018-04-16 22:33:50:395
-5.169;-10.52;-0.178;-3.472;-9.14;0.756;-1.125;-1.492;-1.065;-1.862;0.604;-0.847;-4.1;7.7;28.5;51.84;7600;2018-04-16 22:33:50:405
-5.169;-10.52;-0.178;-3.472;-9.14;0.756;-1.125;-1.492;-1.065;-2.05;0.942;-0.855;-4.2;8.0;28.4;51.84;7609;2018-04-16 22:33:50:414
-6.403;-10.119;-0.693;-3.326;-9.22;0.309;-3.078;-0.899;-1.002;-2.05;0.942;-0.855;-4.2;8.0;28.4;51.84;7620;2018-04-16 22:33:50:425
-6.403;-10.119;-0.693;-3.326;-9.22;0.309;-3.078;-0.899;-1.002;-2.387;1.575;-0.826;-4.3;8.1;28.3;51.84;7630;2018-04-16 22:33:50:435
-7.026;-9.834;0.347;-3.176;-9.275;-0.249;-3.89;-0.603;0.818;-2.473;1.741;-0.804;-4.3;8.1;28.3;51.84;7640;2018-04-16 22:33:50:445
-7.027;-10.034;1.514;-3.176;-9.275;-0.249;-3.89;-0.603;0.818;-2.323;1.648;-0.762;-4.5;8.1;28.1;51.84;7650;2018-04-16 22:33:50:455
-6.911;-10.198;2.325;-3.017;-9.298;-0.78;-3.881;-0.862;2.955;-2.323;1.648;-0.762;-4.5;8.1;28.1;51.84;7659;2018-04-16 22:33:50:464
-6.911;-10.198;2.325;-3.017;-9.298;-0.78;-3.881;-0.862;2.955;-2.074;1.63;-0.733;-4.8;8.1;28.1;51.84;7670;2018-04-16 22:33:50:475
-6.709;-9.875;2.398;-2.853;-9.299;-1.248;-3.856;-0.576;3.645;-1.916;1.714;-0.681;-4.8;8.1;28.1;51.84;7680;2018-04-16 22:33:50:485
-6.709;-9.875;2.398;-2.853;-9.299;-1.248;-3.856;-0.576;3.645;-1.916;1.714;-0.681;-5.2;7.9;28.0;51.84;7689;2018-04-16 22:33:50:494
-7.214;-9.902;2.695;-2.693;-9.291;-1.613;-4.52;-0.612;4.307;-1.343;1.493;-0.593;-5.2;7.9;28.0;51.84;7699;2018-04-16 22:33:50:504
-7.762;-9.786;3.555;-2.693;-9.291;-1.613;-4.52;-0.612;4.307;-0.889;1.543;-0.495;-6.0;7.3;27.8;51.84;7710;2018-04-16 22:33:50:515
-7.762;-9.786;3.555;-2.546;-9.286;-1.859;-4.902;-0.17;5.19;-0.59;1.842;-0.459;-6.0;7.3;27.8;51.84;7720;2018-04-16 22:33:50:525
-6.796;-9.023;1.78;-2.546;-9.286;-1.859;-4.902;-0.17;5.19;-0.419;2.206;-0.487;-7.5;6.0;27.3;51.84;7730;2018-04-16 22:33:50:535
-4.92;-8.945;-4.986;-2.374;-9.293;-2.043;-2.902;0.604;-1.142;-0.403;2.142;-0.52;-7.5;6.0;27.3;51.84;7740;2018-04-16 22:33:50:545
-4.577;-8.714;-4.19;-2.374;-9.293;-2.043;-2.902;0.604;-1.142;-0.716;1.162;-0.479;-9.0;5.0;27.3;51.84;7750;2018-04-16 22:33:50:555
-4.577;-8.714;-4.19;-2.226;-9.287;-2.23;-1.988;0.823;-0.837;-0.771;0.81;-0.414;-9.0;5.0;27.3;51.84;7760;2018-04-16 22:33:50:565
-2.412;-8.247;-0.688;-2.226;-9.287;-2.23;-1.988;0.823;-0.837;-0.771;0.81;-0.414;-10.1;4.6;27.3;51.84;7770;2018-04-16 22:33:50:575
-2.412;-8.247;-0.688;-2.1;-9.276;-2.39;0.687;0.276;2.257;-0.649;0.781;-0.518;-10.1;4.6;27.3;51.84;7780;2018-04-16 22:33:50:585
-0.889;-9.774;-0.175;-2.015;-9.283;-2.435;1.126;-0.491;2.26;-0.456;0.904;-0.718;-10.1;4.6;27.3;51.84;7790;2018-04-16 22:33:50:595
-0.889;-9.774;-0.175;-2.015;-9.283;-2.435;1.126;-0.491;2.26;-0.456;0.904;-0.718;-11.3;3.3;28.1;51.84;7801;2018-04-16 22:33:50:606
-0.381;-10.228;-0.849;-1.908;-9.292;-2.489;1.527;-0.936;1.64;-0.402;0.809;-0.81;-11.1;3.2;26.9;51.84;7810;2018-04-16 22:33:50:615
-0.381;-10.228;-0.849;-1.908;-9.292;-2.489;1.527;-0.936;1.64;-0.439;0.112;-0.975;-11.1;3.2;26.9;51.84;7819;2018-04-16 22:33:50:624
-1.893;-10.212;0.445;-1.628;-9.312;-2.609;-0.264;-0.9;3.054;-0.524;0.293;-0.941;-11.8;2.4;26.6;51.84;7829;2018-04-16 22:33:50:634
-1.893;-10.212;0.445;-1.628;-9.312;-2.609;-0.264;-0.9;3.054;-0.524;0.293;-0.941;-11.8;2.4;26.6;51.84;7839;2018-04-16 22:33:50:644
-3.399;-8.26;-0.99;-1.461;-9.308;-2.718;-1.937;1.049;1.728;-0.67;0.235;-0.823;-12.1;2.2;27.1;51.84;7849;2018-04-16 22:33:50:654
-3.399;-8.26;-0.99;-1.461;-9.308;-2.718;-1.937;1.049;1.728;-0.788;-0.148;-0.788;-12.1;2.2;27.1;51.84;7859;2018-04-16 22:33:50:664
-4.742;-6.383;0.035;-1.342;-9.282;-2.867;-3.4;2.899;2.902;-1.032;-0.776;-0.726;-12.6;1.2;27.6;51.84;7869;2018-04-16 22:33:50:674
-4.742;-6.383;0.035;-1.342;-9.282;-2.867;-3.4;2.899;2.902;-1.032;-0.776;-0.726;-12.6;1.2;27.6;51.84;7880;2018-04-16 22:33:50:685
-5.264;-4.282;1.466;-1.238;-9.237;-3.053;-4.025;4.955;4.52;-1.107;-0.42;-0.767;-12.5;1.4;27.0;51.84;7890;2018-04-16 22:33:50:695
-5.264;-4.282;1.466;-1.238;-9.237;-3.053;-4.025;4.955;4.52;-1.102;-0.17;-0.788;-12.5;1.4;27.0;53.97;7900;2018-04-16 22:33:50:705
-5.432;-3.874;-0.366;-1.105;-9.185;-3.252;-4.328;5.312;2.886;-1.043;-0.05;-0.691;-12.9;0.7;27.4;53.97;7910;2018-04-16 22:33:50:715
-4.744;-4.561;-1.295;-1.105;-9.185;-3.252;-4.328;5.312;2.886;-0.853;-0.064;-0.503;-12.9;0.7;27.4;53.97;7920;2018-04-16 22:33:50:725
-3.916;-4.679;-1.56;-1.016;-9.139;-3.407;-3.728;4.578;2.112;-0.58;-0.051;-0.296;-13.0;0.5;27.4;53.97;7930;2018-04-16 22:33:50:735
-3.916;-4.679;-1.56;-0.999;-9.125;-3.45;-2.644;4.443;1.958;-0.58;-0.051;-0.296;-13.0;0.5;27.4;53.97;7940;2018-04-16 22:33:50:745
-3.025;-4.61;-1.231;-0.999;-9.125;-3.45;-2.644;4.443;1.958;-0.106;-0.026;-0.01;-12.8;0.8;27.1;53.97;7950;2018-04-16 22:33:50:755
-2.365;-4.538;-0.991;-1.017;-9.129;-3.436;-1.611;4.56;2.48;0.224;-0.024;0.162;-13.1;0.7;27.1;53.97;7966;2018-04-16 22:33:50:771
-2.365;-4.538;-0.991;-1.017;-9.129;-3.436;-1.611;4.56;2.48;0.64;-0.084;0.411;-13.1;0.7;27.1;53.97;7970;2018-04-16 22:33:50:775
-1.727;-4.608;-1.296;-1.1;-9.163;-3.316;-0.627;4.555;2.02;0.821;-0.22;0.558;-13.4;0.2;27.2;53.97;7980;2018-04-16 22:33:50:785
-1.013;-5.042;-1.645;-1.1;-9.163;-3.316;-0.627;4.555;2.02;0.821;-0.22;0.558;-13.4;0.2;27.2;53.97;7990;2018-04-16 22:33:50:795
-1.013;-5.042;-1.645;-1.253;-9.206;-3.137;0.47;3.889;1.251;0.965;-0.483;0.751;-13.7;-0.1;27.1;53.97;8000;2018-04-16 22:33:50:805
-0.417;-6.218;-2.501;-1.253;-9.206;-3.137;0.47;3.889;1.251;0.997;-0.782;0.929;-13.7;-0.1;27.1;53.97;8010;2018-04-16 22:33:50:815
-0.183;-7.63;-3.378;-1.472;-9.241;-2.933;1.289;1.611;-0.446;0.997;-0.782;0.929;-14.0;-0.4;27.1;53.97;8020;2018-04-16 22:33:50:825
-0.223;-10.661;-5.011;-1.472;-9.241;-2.933;1.289;1.611;-0.446;0.921;-1.18;1.035;-14.1;-0.5;27.1;53.97;8029;2018-04-16 22:33:50:834
-0.223;-10.661;-5.011;-1.745;-9.255;-2.735;1.587;-2.084;-2.501;0.777;-1.537;1.096;-14.1;-0.5;27.1;53.97;8040;2018-04-16 22:33:50:845
0.577;-12.802;-5.893;-1.745;-9.255;-2.735;1.587;-2.084;-2.501;0.582;-1.903;1.189;-14.1;-0.6;27.1;53.97;8050;2018-04-16 22:33:50:855
2.741;-14.612;-5.49;-2.072;-9.233;-2.576;4.311;-4.796;-3.292;0.299;-2.156;1.141;-14.1;-0.6;27.1;53.97;8060;2018-04-16 22:33:50:865
2.741;-14.612;-5.49;-2.072;-9.233;-2.576;4.311;-4.796;-3.292;-0.39;-1.77;0.224;-14.0;-0.6;27.1;53.97;8070;2018-04-16 22:33:50:875
2.057;-16.395;-5.126;-2.196;-9.204;-2.574;4.253;-7.191;-2.552;-0.39;-1.77;0.224;-14.0;-0.6;27.1;53.97;8080;2018-04-16 22:33:50:885
2.072;-14.911;-6.664;-2.196;-9.204;-2.574;4.253;-7.191;-2.552;-0.67;-1.101;-0.47;-13.9;-0.7;27.1;53.97;8090;2018-04-16 22:33:50:895
2.072;-14.911;-6.664;-2.122;-9.195;-2.668;4.404;-5.334;-4.525;-0.745;-0.643;-0.784;-13.9;-0.7;27.1;53.97;8100;2018-04-16 22:33:50:905
2.069;-13.751;-7.892;-2.122;-9.195;-2.668;4.404;-5.334;-4.525;-0.739;0.0;-1.241;-13.7;-0.7;27.4;53.97;8110;2018-04-16 22:33:50:915
1.349;-12.479;-8.141;-1.893;-9.206;-2.799;3.457;-3.849;-5.187;-0.739;0.0;-1.241;-13.7;-0.7;27.4;53.97;8120;2018-04-16 22:33:50:925
1.349;-12.479;-8.141;-1.893;-9.206;-2.799;3.457;-3.849;-5.187;-0.32;0.25;-1.379;-13.5;-0.8;27.6;53.97;8130;2018-04-16 22:33:50:935
-0.327;-9.176;-3.968;-1.639;-9.247;-2.825;1.312;0.071;-1.143;0.099;0.042;-1.275;-13.5;-0.8;27.6;53.97;8140;2018-04-16 22:33:50:945
-0.327;-9.176;-3.968;-1.639;-9.247;-2.825;1.312;0.071;-1.143;0.646;-0.098;-0.969;-13.3;-0.8;27.8;53.97;8150;2018-04-16 22:33:50:955
-3.394;-5.52;-1.368;-1.509;-9.317;-2.66;-1.885;3.798;1.292;0.646;-0.098;-0.969;-13.3;-0.8;27.8;53.97;8160;2018-04-16 22:33:50:965
-3.394;-5.52;-1.368;-1.509;-9.317;-2.66;-1.885;3.798;1.292;1.062;-0.605;-0.15;-13.1;-0.8;28.0;53.97;8171;2018-04-16 22:33:50:976
-6.145;-4.791;-0.933;-1.572;-9.362;-2.461;-4.573;4.571;1.529;0.81;-1.043;0.301;-13.1;-0.8;28.0;53.97;8180;2018-04-16 22:33:50:985
-5.914;-8.458;2.57;-1.572;-9.362;-2.461;-4.573;4.571;1.529;0.677;-1.34;0.9;-12.9;-0.7;28.1;53.97;8191;2018-04-16 22:33:50:996
-5.914;-8.458;2.57;-1.813;-9.366;-2.272;-4.567;-0.786;4.987;0.677;-1.34;0.9;-12.9;-0.7;28.1;53.97;8200;2018-04-16 22:33:51:005
-6.983;-11.508;2.489;-1.813;-9.366;-2.272;-4.567;-0.786;4.987;0.924;-1.445;1.15;-12.8;-0.6;28.2;53.97;8210;2018-04-16 22:33:51:015
-7.86;-16.64;-8.086;-2.085;-9.358;-2.063;-5.776;-7.282;-6.023;0.79;-0.822;1.159;-12.5;-0.3;28.3;56.24;8220;2018-04-16 22:33:51:025
-7.86;-16.64;-8.086;-2.085;-9.358;-2.063;-5.776;-7.282;-6.023;-0.621;0.808;0.649;-12.5;-0.3;28.3;56.24;8230;2018-04-16 22:33:51:035
-10.275;-19.982;-4.365;-2.088;-9.283;-2.373;-8.187;-10.699;-1.992;-1.82;2.191;0.044;-12.2;0.0;28.5;56.24;8240;2018-04-16 22:33:51:045
-5.52;-7.429;4.824;-2.088;-9.283;-2.373;-8.187;-10.699;-1.992;-0.853;2.254;-0.07;-12.2;0.0;28.5;56.24;8250;2018-04-16 22:33:51:055
-5.52;-7.429;4.824;-1.963;-9.246;-2.612;-3.117;3.376;6.672;-0.853;2.254;-0.07;-12.0;0.2;28.7;56.24;8260;2018-04-16 22:33:51:065
-4.081;-3.558;0.684;-1.963;-9.246;-2.612;-3.117;3.376;6.672;0.293;2.001;-0.192;-11.9;0.4;28.7;56.24;8270;2018-04-16 22:33:51:075
-4.081;-3.558;0.684;-1.85;-9.275;-2.591;-1.585;6.917;1.654;0.595;1.412;-0.104;-11.9;0.4;28.7;56.24;8280;2018-04-16 22:33:51:085
-3.672;-2.613;-0.435;-1.841;-9.294;-2.53;-1.83;6.681;2.095;0.837;0.535;0.039;-11.8;0.6;28.8;56.24;8290;2018-04-16 22:33:51:095
-3.672;-2.613;-0.435;-1.841;-9.294;-2.53;-1.83;6.681;2.095;1.029;-0.076;0.276;-11.8;0.6;28.8;56.24;8300;2018-04-16 22:33:51:105
-3.618;-4.462;1.341;-1.919;-9.33;-2.33;-1.698;4.869;3.671;1.052;0.183;0.72;-11.7;0.8;28.9;56.24;8311;2018-04-16 22:33:51:116
-4.322;-6.214;1.445;-1.99;-9.341;-2.224;-2.332;3.127;3.669;1.052;0.183;0.72;-11.7;0.8;28.9;56.24;8320;2018-04-16 22:33:51:125
-4.322;-6.214;1.445;-1.99;-9.341;-2.224;-2.332;3.127;3.669;0.933;0.492;0.83;-11.7;1.0;29.0;56.24;8330;2018-04-16 22:33:51:135
-5.974;-10.053;1.123;-2.135;-9.341;-2.087;-3.839;-0.712;3.21;0.715;0.772;0.887;-11.7;1.0;29.0;56.24;8340;2018-04-16 22:33:51:145
-6.468;-11.435;0.488;-2.135;-9.341;-2.087;-3.839;-0.712;3.21;0.252;1.102;0.726;-11.7;1.3;29.2;56.24;8350;2018-04-16 22:33:51:155
-6.468;-11.435;0.488;-2.214;-9.316;-2.116;-4.214;-2.2;2.232;-0.037;1.062;0.613;-11.7;1.3;29.2;56.24;8359;2018-04-16 22:33:51:164
-5.683;-10.885;-0.493;-2.214;-9.316;-2.116;-4.214;-2.2;2.232;-0.269;0.66;0.596;-11.8;1.5;29.2;56.24;8370;2018-04-16 22:33:51:175
-5.683;-10.885;-0.493;-2.314;-9.273;-2.195;-2.607;-0.829;1.376;-0.441;-0.066;0.59;-11.8;1.5;29.2;56.24;8380;2018-04-16 22:33:51:185
-4.208;-9.349;-0.819;-2.314;-9.273;-2.195;-2.607;-0.829;1.376;-0.573;-0.927;0.621;-12.0;1.8;29.1;56.24;8390;2018-04-16 22:33:51:195
-3.54;-8.73;-0.612;-2.503;-9.215;-2.235;-1.037;0.484;1.623;-0.678;-1.739;0.674;-12.0;1.8;29.1;56.24;8400;2018-04-16 22:33:51:205
-3.54;-8.73;-0.612;-2.503;-9.215;-2.235;-1.037;0.484;1.623;-0.678;-1.739;0.674;-12.1;2.1;29.0;56.24;8410;2018-04-16 22:33:51:215
-2.597;-8.344;-0.231;-2.755;-9.14;-2.244;0.159;0.796;2.013;-0.87;-2.82;0.734;-12.1;2.1;29.0;56.24;8419;2018-04-16 22:33:51:224
-2.437;-8.509;0.475;-2.755;-9.14;-2.244;0.159;0.796;2.013;-1.058;-3.102;0.681;-12.2;2.4;28.9;56.24;8430;2018-04-16 22:33:51:235
-2.437;-8.509;0.475;-3.016;-9.056;-2.25;0.532;0.401;3.071;-1.097;-3.129;0.611;-12.2;2.4;28.9;56.24;8440;2018-04-16 22:33:51:245
-2.679;-9.228;0.618;-3.016;-9.056;-2.25;0.532;0.401;3.071;-1.075;-3.15;0.55;-12.1;2.7;28.9;56.24;8450;2018-04-16 22:33:51:255
-2.151;-9.983;0.619;-3.247;-8.983;-2.221;0.967;-0.67;2.783;-1.031;-3.219;0.459;-12.1;2.7;28.9;56.24;8460;2018-04-16 22:33:51:265
-1.616;-10.175;1.189;-3.247;-8.983;-2.221;0.967;-0.67;2.783;-0.855;-3.329;0.357;-11.9;2.9;28.9;56.24;8470;2018-04-16 22:33:51:275
-1.616;-10.175;1.189;-3.452;-8.932;-2.112;2.008;-1.112;4.129;-0.855;-3.329;0.357;-11.9;2.9;28.9;56.24;8480;2018-04-16 22:33:51:285
-0.819;-9.214;2.546;-3.452;-8.932;-2.112;2.008;-1.112;4.129;0.811;-4.039;0.312;-11.6;3.1;29.0;56.24;8490;2018-04-16 22:33:51:295
-0.819;-9.214;2.546;-3.614;-8.983;-1.557;2.685;0.034;3.561;1.836;-3.977;0.104;-11.6;3.1;29.0;56.24;8500;2018-04-16 22:33:51:305
-1.611;-9.2;1.81;-3.614;-8.983;-1.557;2.685;0.034;3.561;2.176;-3.5;-0.181;-10.4;3.4;29.1;56.24;8510;2018-04-16 22:33:51:315
-1.611;-9.2;1.81;-3.626;-9.066;-0.91;1.669;0.006;2.948;2.159;-2.792;-0.32;-10.4;3.4;29.1;56.24;8520;2018-04-16 22:33:51:325
-2.124;-8.849;2.295;-3.626;-9.066;-0.91;1.669;0.006;2.948;2.044;-1.785;-0.347;-8.9;3.8;30.0;56.24;8530;2018-04-16 22:33:51:335
-2.124;-8.849;2.295;-3.567;-9.123;-0.465;1.273;0.407;2.328;2.044;-1.785;-0.347;-6.9;4.8;30.4;60.83;8540;2018-04-16 22:33:51:345
-2.597;-9.111;0.85;-3.567;-9.123;-0.465;1.273;0.407;2.328;1.706;0.908;-0.469;-6.9;4.8;30.4;60.83;8550;2018-04-16 22:33:51:355
-3.261;-9.701;-0.074;-3.459;-9.172;-0.282;0.391;-0.399;0.382;1.387;1.927;-0.52;-6.0;5.5;30.1;60.83;8560;2018-04-16 22:33:51:365
-3.261;-9.701;-0.074;-3.459;-9.172;-0.282;0.391;-0.399;0.382;0.949;2.693;-0.408;-6.0;5.5;30.1;60.83;8570;2018-04-16 22:33:51:375
-3.448;-9.301;-0.279;-3.369;-9.205;-0.288;-0.078;-0.096;0.009;0.949;2.693;-0.408;-6.1;6.4;30.8;60.83;8580;2018-04-16 22:33:51:385
-4.122;-9.079;-1.107;-3.369;-9.205;-0.288;-0.078;-0.096;0.009;0.891;2.82;-0.341;-6.7;6.1;30.2;60.83;8590;2018-04-16 22:33:51:395
-4.122;-9.079;-1.107;-3.293;-9.234;-0.262;-1.029;0.005;-1.04;1.275;2.417;-0.376;-6.7;6.1;30.2;60.83;8600;2018-04-16 22:33:51:405
-4.223;-9.269;-1.663;-3.293;-9.234;-0.262;-1.029;0.005;-1.04;1.682;1.732;-0.302;-7.7;6.6;29.4;60.83;8610;2018-04-16 22:33:51:415
-4.223;-9.269;-1.663;-3.249;-9.253;-0.035;-0.461;0.315;-1.712;1.847;1.1;-0.186;-7.7;6.6;29.4;60.83;8620;2018-04-16 22:33:51:425
-3.591;-8.533;-1.696;-3.249;-9.253;-0.035;-0.461;0.315;-1.712;1.687;0.497;-0.121;-7.6;7.6;29.2;60.83;8630;2018-04-16 22:33:51:435
-4.11;-8.27;-1.668;-3.237;-9.254;0.218;-0.698;0.92;-1.894;1.4;0.235;-0.066;-7.6;7.6;29.2;60.83;8640;2018-04-16 22:33:51:445
-4.322;-8.162;-1.72;-3.237;-9.254;0.218;-0.698;0.92;-1.894;1.225;0.155;0.013;-7.0;8.7;29.2;60.83;8650;2018-04-16 22:33:51:455
-4.322;-8.162;-1.72;-3.253;-9.242;0.417;-1.104;1.066;-2.116;1.225;0.155;0.013;-7.0;8.7;29.2;60.83;8660;2018-04-16 22:33:51:465
-4.496;-8.255;-1.553;-3.253;-9.242;0.417;-1.104;1.066;-2.116;0.943;0.109;0.125;-7.5;9.1;28.7;60.83;8670;2018-04-16 22:33:51:475
-4.496;-8.255;-1.553;-3.301;-9.218;0.55;-1.334;0.721;-1.889;0.689;0.055;0.241;-7.5;9.1;28.7;60.83;8680;2018-04-16 22:33:51:485
-4.658;-8.859;-1.141;-3.301;-9.218;0.55;-1.334;0.721;-1.889;0.619;-0.055;0.312;-7.5;9.1;29.2;60.83;8690;2018-04-16 22:33:51:495
-4.559;-9.21;-0.927;-3.365;-9.188;0.661;-1.194;-0.023;-1.588;0.619;-0.055;0.312;-7.5;9.1;29.2;60.83;8700;2018-04-16 22:33:51:505
-4.166;-9.462;-0.674;-3.399;-9.171;0.719;-0.767;-0.291;-1.393;0.624;-0.272;0.411;-7.0;9.6;28.9;60.83;8710;2018-04-16 22:33:51:515
-3.19;-9.492;-0.399;-3.477;-9.131;0.839;0.287;-0.361;-1.238;0.534;-0.342;0.464;-7.0;9.6;28.9;60.83;8720;2018-04-16 22:33:51:525
-3.19;-9.492;-0.399;-3.477;-9.131;0.839;0.287;-0.361;-1.238;0.534;-0.342;0.464;-7.0;9.6;29.3;60.83;8730;2018-04-16 22:33:51:535
-2.624;-9.367;-0.51;-3.477;-9.131;0.839;0.287;-0.361;-1.238;0.463;-0.329;0.452;-7.0;9.6;29.3;60.83;8740;2018-04-16 22:33:51:545
-2.624;-9.367;-0.51;-3.545;-9.096;0.932;1.045;-0.241;-1.469;0.451;-0.387;0.413;-6.4;10.4;29.2;60.83;8750;2018-04-16 22:33:51:555
-2.083;-9.207;-0.554;-3.545;-9.096;0.932;1.045;-0.241;-1.469;0.494;-0.412;0.358;-6.4;10.4;29.2;60.83;8760;2018-04-16 22:33:51:565
-1.781;-9.352;-0.43;-3.59;-9.067;1.033;1.717;-0.207;-1.517;0.484;-0.331;0.272;-6.4;10.7;29.1;60.83;8770;2018-04-16 22:33:51:575
-1.781;-9.352;-0.43;-3.59;-9.067;1.033;1.717;-0.207;-1.517;0.484;-0.331;0.272;-6.4;10.7;29.1;60.83;8780;2018-04-16 22:33:51:585
-1.415;-9.588;-0.526;-3.602;-9.055;1.099;2.187;-0.533;-1.625;0.327;-0.042;0.123;-6.3;11.0;28.3;60.83;8790;2018-04-16 22:33:51:595
-1.361;-10.033;-0.255;-3.602;-9.055;1.099;2.187;-0.533;-1.625;0.18;0.095;0.04;-6.3;11.0;28.3;60.83;8800;2018-04-16 22:33:51:605
-1.361;-10.033;-0.255;-3.598;-9.056;1.104;2.313;-1.056;-1.304;0.086;0.191;0.034;-6.4;11.3;28.4;60.83;8810;2018-04-16 22:33:51:615
-1.159;-10.332;0.043;-3.598;-9.056;1.104;2.313;-1.056;-1.304;0.066;0.219;0.039;-6.4;11.3;28.4;60.83;8820;2018-04-16 22:33:51:625
-1.699;-10.981;0.615;-3.601;-9.055;1.102;2.181;-1.701;-0.693;0.15;0.182;-0.062;-6.5;11.3;28.7;60.83;8830;2018-04-16 22:33:51:635
-1.699;-10.981;0.615;-3.601;-9.055;1.102;2.181;-1.701;-0.693;0.15;0.182;-0.062;-6.5;11.3;28.7;60.83;8840;2018-04-16 22:33:51:645
-2.403;-11.486;0.989;-3.583;-9.059;1.128;1.181;-2.428;-0.139;0.264;0.227;-0.144;-6.7;11.3;28.5;60.83;8850;2018-04-16 22:33:51:655
-2.403;-11.486;0.989;-3.583;-9.059;1.128;1.181;-2.428;-0.139;0.364;0.285;-0.167;-6.7;11.3;28.5;60.83;8860;2018-04-16 22:33:51:665
-2.419;-11.744;0.287;-3.556;-9.062;1.18;1.137;-2.681;-0.893;0.453;0.294;-0.2;-7.0;11.8;28.3;60.83;8870;2018-04-16 22:33:51:675
-2.419;-11.744;0.287;-3.556;-9.062;1.18;1.137;-2.681;-0.893;0.492;0.236;-0.241;-7.0;11.8;28.3;53.82;8880;2018-04-16 22:33:51:685
-1.681;-11.277;-0.753;-3.513;-9.07;1.253;1.832;-2.207;-2.006;0.47;0.153;-0.29;-7.2;12.2;28.1;53.82;8890;2018-04-16 22:33:51:695
-1.681;-11.202;-1.262;-3.513;-9.07;1.253;1.832;-2.207;-2.006;0.367;0.088;-0.37;-7.2;12.2;28.1;53.82;8899;2018-04-16 22:33:51:704
-1.681;-11.202;-1.262;-3.438;-9.093;1.289;1.688;-2.116;-2.625;0.062;0.059;-0.486;-7.2;12.7;27.9;53.82;8910;2018-04-16 22:33:51:715
-1.913;-11.319;-1.463;-3.438;-9.093;1.289;1.688;-2.116;-2.625;-0.182;0.073;-0.534;-7.2;12.7;27.9;53.82;8920;2018-04-16 22:33:51:725
-1.982;-11.602;-1.65;-3.338;-9.139;1.229;1.362;-2.338;-2.865;-0.608;0.035;-0.613;-7.3;13.0;27.7;53.82;8930;2018-04-16 22:33:51:735
-1.982;-11.602;-1.65;-3.338;-9.139;1.229;1.362;-2.338;-2.865;-0.608;0.035;-0.613;-7.3;13.0;27.7;53.82;8940;2018-04-16 22:33:51:745
-2.31;-11.467;-1.073;-3.208;-9.206;1.064;0.897;-2.261;-2.136;-1.102;-0.147;-0.76;-7.4;13.3;27.6;53.82;8950;2018-04-16 22:33:51:755
-2.31;-11.467;-1.073;-3.208;-9.206;1.064;0.897;-2.261;-2.136;-1.372;-0.193;-0.825;-7.4;13.3;27.6;53.82;8960;2018-04-16 22:33:51:765
-3.785;-10.378;0.162;-3.049;-9.286;0.804;-0.736;-1.092;-0.642;-1.624;0.048;-0.887;-7.5;13.4;27.5;53.82;8970;2018-04-16 22:33:51:775
-4.833;-9.797;-0.065;-2.958;-9.329;0.624;-1.875;-0.468;-0.689;-1.624;0.048;-0.887;-7.5;13.4;27.5;53.82;8980;2018-04-16 22:33:51:785
-6.613;-9.093;-1.006;-2.958;-9.329;0.624;-1.875;-0.468;-0.689;-1.839;0.606;-0.931;-7.6;13.5;27.4;53.82;8990;2018-04-16 22:33:51:795
-6.613;-9.093;-1.006;-2.793;-9.398;0.208;-4.218;0.522;-1.276;-2.045;1.12;-0.914;-7.6;13.5;27.4;53.82;9000;2018-04-16 22:33:51:805
-7.722;-8.912;0.189;-2.793;-9.398;0.208;-4.218;0.522;-1.276;-2.045;1.12;-0.914;-7.7;13.5;27.4;53.82;9010;2018-04-16 22:33:51:815
-7.722;-8.912;0.189;-2.637;-9.439;-0.333;-5.175;0.539;2.22;-2.352;2.176;-0.772;-7.7;13.5;27.4;53.82;9020;2018-04-16 22:33:51:825
-7.344;-8.995;2.642;-2.637;-9.439;-0.333;-5.175;0.539;2.22;-2.085;2.546;-0.754;-7.9;13.4;27.5;53.82;9030;2018-04-16 22:33:51:835
-7.573;-9.377;2.933;-2.465;-9.454;-0.848;-4.799;0.21;3.817;-1.731;2.342;-0.772;-7.9;13.4;27.5;53.82;9040;2018-04-16 22:33:51:845
-7.573;-9.377;2.933;-2.465;-9.454;-0.848;-4.799;0.21;3.817;-1.381;2.129;-0.684;-8.3;13.1;27.5;53.82;9049;2018-04-16 22:33:51:854
-7.64;-9.363;2.336;-2.293;-9.457;-1.213;-5.347;0.095;3.548;-1.161;2.064;-0.6;-8.3;13.1;27.5;53.82;9060;2018-04-16 22:33:51:865
-8.034;-9.695;1.966;-2.293;-9.457;-1.213;-5.347;0.095;3.548;-0.933;1.958;-0.529;-9.0;12.4;27.6;53.82;9070;2018-04-16 22:33:51:875
-8.034;-9.695;1.966;-2.144;-9.455;-1.476;-5.959;-0.326;3.391;-0.933;1.958;-0.529;-9.0;12.4;27.6;53.82;9080;2018-04-16 22:33:51:885
-7.834;-9.949;1.227;-2.144;-9.455;-1.476;-5.959;-0.326;3.391;-0.731;1.847;-0.329;-10.9;11.0;27.6;53.82;9090;2018-04-16 22:33:51:895
-6.701;-9.306;-0.59;-2.032;-9.444;-1.691;-5.226;-0.301;1.812;-0.738;1.83;-0.263;-10.9;11.0;27.6;53.82;9100;2018-04-16 22:33:51:905
-6.701;-9.306;-0.59;-2.032;-9.444;-1.691;-5.226;-0.301;1.812;-0.843;1.484;-0.238;-12.9;9.4;27.7;53.82;9110;2018-04-16 22:33:51:915
-6.675;-9.528;-1.84;-1.942;-9.422;-1.906;-4.733;-0.106;0.066;-0.849;1.137;-0.177;-12.9;9.4;27.7;53.82;9120;2018-04-16 22:33:51:925
-6.675;-9.528;-1.84;-1.942;-9.422;-1.906;-4.733;-0.106;0.066;-0.849;1.137;-0.177;-13.6;9.1;27.6;53.82;9130;2018-04-16 22:33:51:935
-2.239;-8.863;-0.31;-1.959;-9.389;-2.044;-0.28;0.526;1.734;-0.765;-0.459;0.013;-13.6;9.1;27.6;53.82;9140;2018-04-16 22:33:51:945
-2.239;-8.863;-0.31;-1.959;-9.389;-2.044;-0.28;0.526;1.734;-0.717;-0.177;-0.513;-13.8;8.4;27.2;53.82;9150;2018-04-16 22:33:51:955
1.561;-10.137;0.892;-1.894;-9.38;-2.144;3.455;-0.757;3.036;-0.833;0.896;-0.731;-13.8;8.4;27.2;53.82;9160;2018-04-16 22:33:51:965
2.342;-12.271;-0.18;-1.894;-9.38;-2.144;3.455;-0.757;3.036;-0.765;1.403;-0.933;-14.4;7.2;28.1;53.82;9169;2018-04-16 22:33:51:974
2.342;-12.271;-0.18;-1.682;-9.375;-2.335;2.993;-3.216;1.72;-0.765;1.403;-0.933;-14.4;7.2;28.1;53.82;9179;2018-04-16 22:33:51:984
-0.739;-11.642;-1.243;-1.682;-9.375;-2.335;2.993;-3.216;1.72;-0.512;1.572;-0.81;-15.5;6.1;27.6;53.82;9190;2018-04-16 22:33:51:995
-1.999;-9.333;-1.483;-1.48;-9.377;-2.459;0.003;-0.597;0.861;-0.357;1.389;-0.608;-15.5;6.1;27.6;53.97;9200;2018-04-16 22:33:52:005
-1.999;-9.333;-1.483;-1.48;-9.377;-2.459;0.003;-0.597;0.861;-0.199;0.997;-0.555;-16.2;6.3;26.0;53.97;9210;2018-04-16 22:33:52:015
-3.778;-8.161;-0.809;-1.346;-9.386;-2.501;-2.432;1.226;1.691;-0.101;0.606;-0.558;-16.2;6.3;26.0;53.97;9220;2018-04-16 22:33:52:025
-3.778;-8.161;-0.809;-1.346;-9.386;-2.501;-2.432;1.226;1.691;-0.209;0.324;-0.635;-16.7;5.8;26.5;53.97;9230;2018-04-16 22:33:52:035
-4.761;-6.706;-0.818;-1.21;-9.391;-2.551;-3.551;2.685;1.734;-0.411;0.232;-0.698;-16.7;5.8;26.5;53.97;9240;2018-04-16 22:33:52:045
-4.894;-5.661;-0.426;-1.21;-9.391;-2.551;-3.551;2.685;1.734;-0.65;0.087;-0.738;-17.1;5.5;27.3;53.97;9250;2018-04-16 22:33:52:055
-4.894;-5.661;-0.426;-1.069;-9.374;-2.674;-3.786;3.88;2.533;-0.808;-0.154;-0.784;-17.1;5.5;27.3;53.97;9260;2018-04-16 22:33:52:065
-4.427;-5.113;0.492;-1.069;-9.374;-2.674;-3.786;3.88;2.533;-0.898;-0.158;-0.825;-16.8;5.5;27.0;53.97;9270;2018-04-16 22:33:52:075
-3.776;-5.012;-0.622;-0.924;-9.341;-2.839;-3.041;4.438;2.747;-0.986;0.022;-0.808;-16.8;5.5;27.0;53.97;9280;2018-04-16 22:33:52:085
-3.776;-5.012;-0.622;-0.924;-9.341;-2.839;-3.041;4.438;2.747;-0.986;0.022;-0.808;-17.3;4.7;27.7;53.97;9290;2018-04-16 22:33:52:095
-3.183;-5.346;-1.599;-0.795;-9.293;-3.029;-2.388;3.947;1.43;-0.998;0.087;-0.596;-17.3;4.7;27.7;53.97;9300;2018-04-16 22:33:52:105
-2.472;-5.454;-1.869;-0.795;-9.293;-3.029;-2.388;3.947;1.43;-0.745;-0.087;-0.291;-17.1;4.8;27.0;53.97;9310;2018-04-16 22:33:52:115
-2.472;-5.454;-1.869;-0.748;-9.252;-3.164;-1.553;3.817;1.417;-0.481;-0.155;-0.092;-17.1;4.8;27.0;53.97;9320;2018-04-16 22:33:52:125
-2.124;-5.399;-1.567;-0.748;-9.252;-3.164;-1.553;3.817;1.417;-0.178;-0.217;0.089;-17.1;4.9;27.1;53.97;9330;2018-04-16 22:33:52:135
-1.686;-5.377;-1.251;-0.78;-9.24;-3.191;-1.049;3.885;1.858;0.094;-0.259;0.263;-17.1;4.9;27.1;53.97;9340;2018-04-16 22:33:52:145
-1.523;-5.62;-1.229;-0.78;-9.24;-3.191;-1.049;3.885;1.858;0.32;-0.315;0.409;-17.5;4.7;27.0;53.97;9350;2018-04-16 22:33:52:155
-1.523;-5.62;-1.229;-0.878;-9.254;-3.125;-0.604;3.527;1.914;0.32;-0.315;0.409;-17.5;4.7;27.0;53.97;9360;2018-04-16 22:33:52:165
-1.222;-5.942;-1.338;-0.878;-9.254;-3.125;-0.604;3.527;1.914;0.578;-0.512;0.63;-17.8;4.3;26.9;53.97;9369;2018-04-16 22:33:52:174
-0.533;-6.329;-1.425;-1.045;-9.279;-2.995;0.285;3.131;1.64;0.691;-0.681;0.756;-17.8;4.3;26.9;53.97;9380;2018-04-16 22:33:52:185
-0.533;-6.329;-1.425;-1.045;-9.279;-2.995;0.285;3.131;1.64;0.782;-0.816;0.82;-18.0;3.9;27.0;53.97;9391;2018-04-16 22:33:52:196
