sep=;
acc_x;acc_y;acc_z;grav_x;grav_y;grav_z;lin_acc_x;lin_acc_y;lin_acc_z;gyro_x;gyro_y;gyro_z;mag_x;mag_y;mag_z;sound_lvl;time_ms;date_time
-0.438;2.814;10.087;0.011;2.87;9.377;-0.456;-0.016;0.531;-0.274;-0.064;-0.169;-4.1;-32.2;12.2;50.58;22;2018-04-16 22:40:59:346
-0.433;2.934;9.582;0.006;2.845;9.385;-0.44;0.09;0.197;-0.298;-0.002;-0.138;-4.1;-32.2;12.2;50.58;33;2018-04-16 22:40:59:357
-0.433;2.934;9.582;0.006;2.845;9.385;-0.44;0.09;0.197;-0.298;-0.002;-0.138;-4.1;-32.2;12.2;50.58;43;2018-04-16 22:40:59:367
-0.52;2.993;9.374;0.008;2.789;9.402;-0.452;0.213;-0.003;-0.305;-0.077;-0.132;-4.0;-32.2;12.1;50.58;53;2018-04-16 22:40:59:377
-0.369;3.013;9.395;0.008;2.789;9.402;-0.452;0.213;-0.003;-0.258;-0.151;-0.117;-4.0;-32.2;12.1;50.58;63;2018-04-16 22:40:59:387
-0.127;3.055;9.572;0.032;2.745;9.415;-0.234;0.315;0.058;-0.228;-0.202;-0.117;-3.8;-32.3;11.9;50.58;73;2018-04-16 22:40:59:397
-0.127;3.055;9.572;0.051;2.724;9.42;-0.145;0.323;0.202;-0.209;-0.232;-0.13;-3.7;-32.3;11.9;50.58;83;2018-04-16 22:40:59:407
-0.059;3.109;9.635;0.051;2.724;9.42;-0.145;0.323;0.202;-0.156;-0.253;-0.178;-3.7;-32.3;11.9;50.58;93;2018-04-16 22:40:59:417
-0.043;3.008;9.625;0.087;2.694;9.429;-0.131;0.314;0.196;-0.094;-0.304;-0.193;-3.6;-32.3;11.8;50.58;103;2018-04-16 22:40:59:427
-0.043;3.008;9.625;0.087;2.694;9.429;-0.131;0.314;0.196;-0.094;-0.304;-0.193;-3.6;-32.3;11.8;50.58;113;2018-04-16 22:40:59:437
0.013;2.883;9.234;0.145;2.689;9.43;-0.056;0.207;-0.34;0.0;-0.423;-0.2;-3.5;-32.4;11.7;50.58;122;2018-04-16 22:40:59:446
0.013;2.883;9.234;0.145;2.689;9.43;-0.056;0.207;-0.34;0.203;-0.757;-0.22;-3.5;-32.4;11.7;50.58;133;2018-04-16 22:40:59:457
0.724;3.013;9.055;0.31;2.753;9.407;0.776;0.276;-0.236;0.299;-0.903;-0.239;-3.3;-32.3;11.6;50.58;144;2018-04-16 22:40:59:468
1.612;3.214;9.357;0.422;2.813;9.385;1.191;0.401;-0.028;0.676;-1.359;-0.349;-3.2;-32.3;11.5;50.58;153;2018-04-16 22:40:59:477
1.612;3.214;9.357;0.422;2.813;9.385;1.191;0.401;-0.028;0.676;-1.359;-0.349;-3.2;-32.3;11.5;50.58;163;2018-04-16 22:40:59:487
1.829;3.342;8.8;0.744;3.02;9.3;1.042;0.277;-0.837;1.078;-1.839;-0.469;-3.1;-32.4;11.4;50.58;173;2018-04-16 22:40:59:497
3.089;3.663;7.77;0.744;3.02;9.3;1.042;0.277;-0.837;1.289;-2.34;-0.562;-3.0;-32.4;11.4;50.58;183;2018-04-16 22:40:59:507
3.089;3.663;7.77;1.184;3.277;9.167;3.556;0.82;-2.305;1.289;-2.34;-0.562;-3.0;-32.4;11.4;50.58;193;2018-04-16 22:40:59:517
4.178;3.958;7.021;1.436;3.411;9.081;2.975;-0.037;-2.136;1.202;-2.831;-1.024;-2.9;-32.4;11.4;50.58;203;2018-04-16 22:40:59:527
4.178;3.958;7.021;1.436;3.411;9.081;2.975;-0.037;-2.136;1.202;-2.831;-1.024;-2.9;-32.4;11.4;50.58;213;2018-04-16 22:40:59:537
2.069;2.178;6.889;1.79;3.594;8.947;0.279;-1.416;-2.058;0.757;-2.595;-1.567;-2.6;-32.4;11.4;50.58;223;2018-04-16 22:40:59:547
0.201;1.857;7.626;1.914;3.636;8.904;-1.713;-1.78;-1.279;0.253;-2.082;-1.339;-2.3;-32.4;11.3;50.58;232;2018-04-16 22:40:59:556
0.201;1.857;7.626;1.914;3.636;8.904;-1.713;-1.78;-1.279;-0.039;-1.611;-0.691;-2.3;-32.4;11.3;50.58;242;2018-04-16 22:40:59:566
1.079;0.625;8.701;2.151;3.661;8.839;-1.073;-3.036;-0.139;-0.023;-1.395;-0.265;-2.0;-32.3;11.4;50.58;253;2018-04-16 22:40:59:577
1.079;0.625;8.701;2.151;3.661;8.839;-1.073;-3.036;-0.139;-0.023;-1.395;-0.265;-2.0;-32.3;11.4;50.58;262;2018-04-16 22:40:59:586
2.891;1.336;7.81;2.379;3.675;8.775;0.863;-1.758;-1.487;0.087;-1.272;0.031;-1.8;-32.2;11.3;50.58;273;2018-04-16 22:40:59:597
3.519;3.146;6.013;2.511;3.693;8.731;1.008;-0.547;-2.718;0.221;-1.329;0.104;-1.3;-32.2;11.5;50.58;283;2018-04-16 22:40:59:607
3.519;3.146;6.013;2.511;3.693;8.731;1.008;-0.547;-2.718;0.199;-1.881;-0.133;-1.3;-32.2;11.5;50.58;293;2018-04-16 22:40:59:617
3.845;3.478;4.841;2.836;3.735;8.613;1.009;-0.258;-3.772;0.175;-2.38;-0.287;-0.9;-32.2;11.5;50.58;303;2018-04-16 22:40:59:627
3.845;3.478;4.841;2.836;3.735;8.613;1.009;-0.258;-3.772;0.175;-2.38;-0.287;-0.9;-32.2;11.5;50.58;313;2018-04-16 22:40:59:637
3.845;3.478;4.841;2.836;3.735;8.613;1.009;-0.258;-3.772;0.175;-2.38;-0.287;-0.9;-32.2;11.5;50.58;323;2018-04-16 22:40:59:647
4.071;3.587;5.367;3.017;3.756;8.542;1.055;-0.169;-3.175;0.139;-2.542;-0.381;-0.7;-32.2;11.4;50.58;334;2018-04-16 22:40:59:658
4.071;3.587;5.367;3.017;3.756;8.542;1.055;-0.169;-3.175;-0.108;-2.691;-0.87;-0.7;-32.2;11.4;50.58;344;2018-04-16 22:40:59:668
2.63;2.798;6.663;3.794;3.839;8.187;-1.164;-1.042;-1.524;-0.279;-2.564;-0.936;1.1;-31.7;11.7;50.64;352;2018-04-16 22:40:59:676
2.545;3.535;10.071;3.794;3.839;8.187;-1.164;-1.042;-1.524;-0.566;-1.971;-0.881;1.1;-31.7;11.7;50.64;362;2018-04-16 22:40:59:686
2.545;3.535;10.071;4.084;3.837;8.048;-1.66;-0.125;3.374;-0.566;-1.971;-0.881;2.2;-31.5;10.9;50.64;372;2018-04-16 22:40:59:696
2.545;3.535;10.071;4.084;3.837;8.048;-1.66;-0.125;3.374;-0.566;-1.971;-0.881;2.2;-31.5;10.9;50.64;383;2018-04-16 22:40:59:707
2.361;3.93;10.436;4.138;3.808;8.034;-1.777;0.122;2.402;-0.713;-0.976;-0.755;2.7;-31.6;10.6;50.64;393;2018-04-16 22:40:59:717
2.376;3.243;8.765;4.097;3.667;8.12;-1.721;-0.424;0.645;-1.155;0.18;-0.257;3.6;-31.7;11.1;50.64;403;2018-04-16 22:40:59:727
2.376;3.243;8.765;4.097;3.667;8.12;-1.721;-0.424;0.645;-1.155;0.18;-0.257;3.6;-31.7;11.1;50.64;413;2018-04-16 22:40:59:737
2.564;2.881;8.243;3.995;3.408;8.282;-1.192;-0.82;-0.624;-1.406;0.77;0.397;4.0;-31.8;10.8;50.64;422;2018-04-16 22:40:59:746
2.564;2.881;8.243;3.995;3.408;8.282;-1.192;-0.82;-0.624;-1.406;0.77;0.397;4.0;-31.8;10.8;50.64;432;2018-04-16 22:40:59:756
3.2;1.829;6.794;3.959;3.289;8.348;-0.759;-1.459;-1.554;-1.324;0.7;0.541;4.3;-31.6;10.6;50.64;443;2018-04-16 22:40:59:767
2.691;1.58;5.942;3.974;3.055;8.429;-1.282;-1.475;-2.487;-1.054;-0.144;0.542;4.3;-31.8;10.3;50.64;453;2018-04-16 22:40:59:777
2.691;1.58;5.942;3.974;3.055;8.429;-1.282;-1.475;-2.487;-0.858;-0.688;0.569;4.3;-31.8;10.3;50.64;463;2018-04-16 22:40:59:787
2.307;1.931;5.781;4.17;2.88;8.396;-1.768;-0.966;-2.5;-0.622;-1.282;0.621;4.5;-31.6;10.4;50.64;473;2018-04-16 22:40:59:797
2.78;1.732;6.474;4.17;2.88;8.396;-1.768;-0.966;-2.5;-0.198;-2.239;0.781;4.5;-31.6;10.5;50.64;482;2018-04-16 22:40:59:806
3.445;1.093;7.295;4.58;2.776;8.215;-1.406;-1.39;-1.166;-0.198;-2.239;0.781;4.5;-31.6;10.5;50.64;492;2018-04-16 22:40:59:816
3.445;1.093;7.295;4.887;2.745;8.047;-1.4;-1.873;-0.652;0.235;-3.117;0.998;4.9;-31.6;10.5;50.64;502;2018-04-16 22:40:59:826
3.65;0.165;7.527;4.887;2.745;8.047;-1.4;-1.873;-0.652;0.235;-3.117;0.998;4.9;-31.6;10.5;50.64;513;2018-04-16 22:40:59:837
3.528;-0.667;7.274;5.538;2.719;7.623;-2.01;-3.386;-0.349;0.673;-3.69;1.253;5.0;-31.7;10.3;50.64;523;2018-04-16 22:40:59:847
3.402;-1.39;6.772;5.855;2.707;7.387;-2.453;-4.097;-0.615;1.122;-4.059;1.69;5.4;-31.7;10.0;50.64;533;2018-04-16 22:40:59:857
3.402;-1.39;6.772;5.855;2.707;7.387;-2.453;-4.097;-0.615;1.122;-4.059;1.69;5.4;-31.7;10.0;50.64;543;2018-04-16 22:40:59:867
3.402;-1.39;6.772;5.855;2.707;7.387;-2.453;-4.097;-0.615;1.122;-4.059;1.69;5.4;-31.7;10.0;50.64;564;2018-04-16 22:40:59:888
3.402;-1.39;6.772;5.855;2.707;7.387;-2.453;-4.097;-0.615;1.122;-4.059;1.69;5.4;-31.7;10.0;50.64;564;2018-04-16 22:40:59:888
3.991;-1.359;5.984;6.584;2.631;6.775;-2.593;-3.99;-0.791;1.593;-4.352;2.507;5.6;-31.8;9.6;50.64;573;2018-04-16 22:40:59:897
6.485;-1.432;3.961;7.643;2.212;5.733;-1.158;-3.643;-1.771;1.399;-4.081;3.64;5.7;-31.9;9.2;50.64;588;2018-04-16 22:40:59:912
6.485;-1.432;3.961;7.643;2.212;5.733;-1.158;-3.643;-1.771;1.399;-4.081;3.64;5.7;-31.9;9.2;50.64;592;2018-04-16 22:40:59:916
7.884;-1.753;3.984;8.207;1.645;5.109;-0.098;-3.52;-0.984;0.852;-3.704;4.037;5.7;-31.9;9.1;50.64;603;2018-04-16 22:40:59:927
7.884;-1.753;3.984;8.207;1.645;5.109;-0.098;-3.52;-0.984;0.331;-3.179;4.298;5.7;-31.9;9.1;50.64;613;2018-04-16 22:40:59:937
8.623;-2.61;4.743;8.611;0.904;4.604;-0.104;-3.941;-0.051;0.035;-2.872;4.457;5.6;-32.0;8.7;50.64;624;2018-04-16 22:40:59:948
8.204;-3.557;4.695;8.751;0.512;4.396;-0.547;-4.068;0.299;-0.25;-2.689;4.677;5.6;-32.0;8.7;50.64;633;2018-04-16 22:40:59:957
8.204;-3.557;4.695;8.751;0.512;4.396;-0.547;-4.068;0.299;-0.25;-2.689;4.677;5.3;-32.2;8.4;50.64;643;2018-04-16 22:40:59:967
9.395;-2.993;5.341;8.958;-0.451;3.964;0.436;-2.542;1.377;-0.854;-2.303;5.195;5.3;-32.2;8.4;50.64;652;2018-04-16 22:40:59:976
9.395;-2.993;5.341;8.958;-0.451;3.964;0.436;-2.542;1.377;-0.854;-2.303;5.195;4.6;-32.3;8.0;50.64;662;2018-04-16 22:40:59:986
11.644;-2.923;5.697;9.0;-1.493;3.597;2.644;-1.43;2.1;-1.464;-1.765;5.216;0.7;-32.4;7.1;50.64;672;2018-04-16 22:40:59:996
11.644;-2.923;5.697;9.0;-1.493;3.597;2.644;-1.43;2.1;-1.772;-1.481;5.052;0.7;-32.4;7.1;50.64;683;2018-04-16 22:41:00:007
12.89;-2.804;5.952;8.959;-2.056;3.418;3.932;-0.747;2.534;-1.772;-1.481;5.052;-0.6;-32.6;8.1;49.79;693;2018-04-16 22:41:00:017
13.613;-2.541;6.764;8.797;-2.998;3.131;4.817;0.457;3.633;-2.282;-0.882;4.326;-4.6;-32.1;7.1;49.79;703;2018-04-16 22:41:00:027
13.613;-2.541;6.764;8.797;-2.998;3.131;4.817;0.457;3.633;-2.282;-0.882;4.326;-4.6;-32.1;7.1;49.79;713;2018-04-16 22:41:00:037
13.551;-3.127;7.262;8.578;-3.771;2.891;4.985;0.461;4.434;-2.217;-0.528;3.724;-6.6;-31.7;5.6;49.79;723;2018-04-16 22:41:00:047
13.408;-4.584;7.606;8.578;-3.771;2.891;4.985;0.461;4.434;-1.66;-0.257;2.793;-8.5;-31.7;4.6;49.79;732;2018-04-16 22:41:00:056
13.408;-4.584;7.606;8.367;-4.335;2.714;4.842;-0.561;4.983;-1.238;-0.244;2.441;-8.5;-31.7;4.6;49.79;742;2018-04-16 22:41:00:066
12.232;-5.553;7.891;8.279;-4.536;2.657;3.953;-1.018;5.234;-1.238;-0.244;2.441;-10.9;-31.0;2.8;49.79;753;2018-04-16 22:41:00:077
12.452;-5.423;6.531;8.279;-4.536;2.657;3.953;-1.018;5.234;-0.512;-0.204;2.215;-11.6;-32.0;4.6;49.79;763;2018-04-16 22:41:00:087
12.452;-5.423;6.531;8.087;-4.907;2.588;4.449;-0.491;3.485;-0.077;-0.293;2.114;-11.6;-32.0;4.6;49.79;773;2018-04-16 22:41:00:097
12.452;-5.423;6.531;8.087;-4.907;2.588;4.449;-0.491;3.485;-0.077;-0.293;2.114;-11.6;-32.0;4.6;49.79;782;2018-04-16 22:41:00:106
12.464;-5.394;5.154;7.989;-5.077;2.565;4.476;-0.317;2.589;0.241;-0.409;2.011;-13.2;-30.0;1.7;49.79;792;2018-04-16 22:41:00:116
12.152;-5.107;4.402;7.817;-5.35;2.539;4.335;0.243;1.863;0.513;-0.475;1.824;-13.7;-29.5;3.5;49.79;803;2018-04-16 22:41:00:127
12.152;-5.107;4.402;7.817;-5.35;2.539;4.335;0.243;1.863;0.513;-0.475;1.824;-13.7;-29.5;3.5;49.79;813;2018-04-16 22:41:00:137
12.546;-4.681;4.451;7.659;-5.572;2.544;5.129;1.065;2.078;0.622;-0.413;1.659;-13.9;-30.2;4.0;49.79;823;2018-04-16 22:41:00:147
13.139;-4.326;5.249;7.659;-5.572;2.544;5.129;1.065;2.078;0.651;-0.239;1.478;-15.5;-29.0;3.7;49.79;832;2018-04-16 22:41:00:156
13.139;-4.326;5.249;7.502;-5.758;2.595;5.911;1.549;3.016;0.612;-0.055;1.416;-15.5;-29.0;3.7;49.79;842;2018-04-16 22:41:00:166
14.19;-4.049;5.884;7.502;-5.758;2.595;5.911;1.549;3.016;0.622;0.33;1.241;-16.4;-28.5;2.8;49.79;853;2018-04-16 22:41:00:177
14.19;-4.049;5.884;7.347;-5.884;2.751;7.314;1.644;3.088;0.622;0.33;1.241;-16.4;-28.5;2.8;49.79;863;2018-04-16 22:41:00:187
14.618;-4.457;5.742;7.347;-5.884;2.751;7.314;1.644;3.088;0.633;1.001;0.79;-16.7;-28.8;1.7;49.79;873;2018-04-16 22:41:00:197
13.581;-5.242;5.641;7.203;-5.917;3.045;6.378;0.675;2.596;0.567;1.767;0.326;-16.8;-28.0;3.3;49.79;883;2018-04-16 22:41:00:207
13.581;-5.242;5.641;7.203;-5.917;3.045;6.378;0.675;2.596;0.567;1.767;0.326;-16.8;-28.0;3.3;49.79;893;2018-04-16 22:41:00:217
13.581;-5.242;5.641;7.203;-5.917;3.045;6.378;0.675;2.596;0.617;2.12;0.25;-16.8;-28.0;3.3;49.79;903;2018-04-16 22:41:00:227
10.463;-7.327;6.689;7.035;-5.914;3.422;3.428;-1.414;3.267;0.617;2.12;0.25;-17.4;-28.1;2.8;49.79;914;2018-04-16 22:41:00:238
10.089;-7.819;6.501;6.937;-5.914;3.614;3.152;-1.905;2.887;1.075;2.115;0.552;-17.4;-27.4;2.3;49.79;923;2018-04-16 22:41:00:247
8.526;-7.924;4.27;6.937;-5.914;3.614;3.152;-1.905;2.887;1.958;1.409;0.676;-17.4;-27.4;2.3;49.79;932;2018-04-16 22:41:00:256
8.526;-7.924;4.27;6.655;-5.821;4.243;1.809;-2.019;0.213;2.717;-0.304;1.03;-17.5;-27.2;5.4;49.79;942;2018-04-16 22:41:00:266
8.108;-8.398;3.82;6.655;-5.821;4.243;1.809;-2.019;0.213;2.834;-1.175;1.302;-17.5;-27.2;5.4;49.79;953;2018-04-16 22:41:00:277
7.161;-9.237;-0.567;6.587;-5.735;4.46;0.836;-3.407;-3.505;2.636;-2.216;1.461;-17.9;-27.9;4.0;49.79;963;2018-04-16 22:41:00:287
7.161;-9.237;-0.567;6.587;-5.735;4.46;0.836;-3.407;-3.505;1.961;-3.641;1.685;-17.9;-27.9;4.0;49.79;973;2018-04-16 22:41:00:297
7.549;-8.338;0.643;6.701;-5.797;4.203;0.848;-2.541;-3.56;1.124;-3.94;1.985;-17.8;-26.7;6.6;49.79;982;2018-04-16 22:41:00:306
8.356;-7.494;3.846;6.701;-5.797;4.203;0.848;-2.541;-3.56;0.79;-3.019;2.321;-17.8;-26.7;6.6;49.79;993;2018-04-16 22:41:00:317
8.356;-7.494;3.846;6.675;-6.046;3.881;2.032;-1.166;1.391;0.693;-2.483;2.464;-18.3;-26.1;6.8;49.79;1003;2018-04-16 22:41:00:327
9.516;-5.954;6.814;6.675;-6.046;3.881;2.032;-1.166;1.391;0.693;-2.483;2.464;-18.3;-26.1;6.8;48.36;1013;2018-04-16 22:41:00:337
9.797;-4.786;4.9;6.558;-6.249;3.757;3.261;1.212;1.941;1.316;-1.794;2.027;-18.7;-25.4;8.7;48.36;1022;2018-04-16 22:41:00:346
9.797;-4.786;4.9;6.558;-6.249;3.757;3.261;1.212;1.941;2.17;-2.155;1.411;-18.7;-25.4;8.7;48.36;1033;2018-04-16 22:41:00:357
8.198;-4.296;3.154;6.553;-6.262;3.744;1.645;1.965;-0.59;2.484;-2.325;1.111;-19.5;-23.8;9.6;48.36;1043;2018-04-16 22:41:00:367
6.832;-5.295;4.325;6.553;-6.262;3.744;1.645;1.965;-0.59;2.7;-2.293;0.987;-19.5;-23.8;9.6;48.36;1053;2018-04-16 22:41:00:377
6.832;-5.295;4.325;6.605;-6.183;3.784;0.218;0.967;0.18;2.896;-2.197;0.911;-19.6;-22.6;11.5;48.36;1063;2018-04-16 22:41:00:387
6.707;-5.276;5.182;6.605;-6.183;3.784;0.218;0.967;0.18;3.168;-2.208;0.801;-19.6;-22.6;11.5;48.36;1072;2018-04-16 22:41:00:396
5.507;-4.605;6.311;6.673;-6.035;3.901;-1.166;1.43;2.41;3.168;-2.208;0.801;-19.9;-22.1;13.4;48.36;1083;2018-04-16 22:41:00:407
4.897;-4.323;3.279;6.673;-6.035;3.901;-1.166;1.43;2.41;3.848;-2.37;0.864;-19.9;-22.1;13.4;48.36;1093;2018-04-16 22:41:00:417
4.897;-4.323;3.279;6.673;-6.035;3.901;-1.166;1.43;2.41;3.848;-2.37;0.864;-19.9;-22.1;13.4;48.36;1103;2018-04-16 22:41:00:427
4.897;-4.323;3.279;6.673;-6.035;3.901;-1.166;1.43;2.41;3.848;-2.37;0.864;-19.9;-22.1;13.4;48.36;1113;2018-04-16 22:41:00:437
4.897;-4.323;3.279;6.673;-6.035;3.901;-1.166;1.43;2.41;3.848;-2.37;0.864;-19.9;-22.1;13.4;48.36;1122;2018-04-16 22:41:00:446
4.897;-4.323;3.279;6.673;-6.035;3.901;-1.166;1.43;2.41;3.848;-2.37;0.864;-19.9;-22.1;13.4;48.36;1132;2018-04-16 22:41:00:456
4.922;-4.196;2.649;6.749;-5.856;4.04;-1.827;1.66;-1.391;3.84;-2.374;1.008;-19.3;-20.3;15.3;48.36;1142;2018-04-16 22:41:00:466
4.922;-4.196;2.649;6.749;-5.856;4.04;-1.827;1.66;-1.391;1.049;-1.409;0.177;-19.3;-20.3;15.3;48.36;1153;2018-04-16 22:41:00:477
6.65;1.656;-1.068;6.96;-5.58;4.072;-0.31;7.236;-5.14;1.049;-1.409;0.177;-17.8;-14.8;18.9;48.36;1163;2018-04-16 22:41:00:487
6.862;1.911;-1.693;7.011;-5.558;4.015;-0.15;7.469;-5.707;0.148;-1.019;-0.257;-17.8;-14.8;18.9;48.36;1172;2018-04-16 22:41:00:496
6.862;1.911;-1.693;7.011;-5.558;4.015;-0.15;7.469;-5.707;-0.421;-1.234;-0.822;-17.8;-14.6;20.2;48.36;1182;2018-04-16 22:41:00:506
6.837;-0.259;1.237;7.199;-5.471;3.797;-0.362;5.212;-2.56;-0.38;-1.62;-1.258;-17.8;-14.6;20.2;48.36;1193;2018-04-16 22:41:00:517
5.24;-2.091;0.84;7.36;-5.368;3.631;-2.12;3.277;-2.791;-0.407;-1.95;-1.615;-17.0;-15.2;21.6;48.36;1202;2018-04-16 22:41:00:526
3.543;-3.688;0.522;7.36;-5.368;3.631;-2.12;3.277;-2.791;-0.69;-1.976;-1.576;-17.0;-15.2;21.6;48.36;1212;2018-04-16 22:41:00:536
3.543;-3.688;0.522;7.661;-5.17;3.279;-4.33;1.111;-2.475;-0.836;-1.996;-1.377;-15.9;-14.8;21.2;48.36;1222;2018-04-16 22:41:00:546
3.771;-4.915;1.495;7.661;-5.17;3.279;-4.33;1.111;-2.475;-0.816;-2.144;-1.15;-15.9;-14.8;21.2;48.36;1232;2018-04-16 22:41:00:556
6.877;-3.588;2.732;7.917;-5.025;2.87;-1.76;1.548;-0.742;-0.726;-2.305;-1.144;-15.6;-16.2;23.8;48.36;1243;2018-04-16 22:41:00:567
6.877;-3.588;2.732;7.917;-5.025;2.87;-1.76;1.548;-0.742;-0.627;-2.303;-1.2;-15.6;-16.2;23.8;48.36;1253;2018-04-16 22:41:00:577
7.98;-3.102;1.689;8.157;-4.867;2.437;-0.177;1.766;-0.748;-0.723;-2.244;-1.245;-13.6;-17.0;24.1;48.36;1263;2018-04-16 22:41:00:587
7.971;-4.126;2.585;8.157;-4.867;2.437;-0.177;1.766;-0.748;-0.718;-1.9;-1.247;-13.6;-17.0;24.1;48.36;1273;2018-04-16 22:41:00:597
7.971;-4.126;2.585;8.362;-4.692;2.057;-0.278;1.087;-0.047;-0.869;-1.673;-1.172;-11.9;-16.8;23.4;48.36;1283;2018-04-16 22:41:00:607
8.015;-2.406;1.314;8.362;-4.692;2.057;-0.278;1.087;-0.047;-1.124;-1.513;-1.145;-11.9;-16.8;23.4;48.36;1292;2018-04-16 22:41:00:616
7.873;-2.996;2.909;8.523;-4.544;1.697;-0.959;1.895;0.259;-1.245;-1.432;-0.964;-11.3;-17.8;24.3;48.36;1302;2018-04-16 22:41:00:626
7.873;-2.996;2.909;8.523;-4.544;1.697;-0.959;1.895;0.259;-1.155;-1.319;-0.634;-11.3;-17.8;24.3;48.38;1312;2018-04-16 22:41:00:636
9.237;-3.432;2.605;8.622;-4.464;1.38;0.615;1.032;1.224;-1.089;-1.157;-0.324;-10.4;-17.7;24.7;48.38;1322;2018-04-16 22:41:00:646
9.226;-3.27;1.518;8.622;-4.464;1.38;0.615;1.032;1.224;-1.122;-0.896;-0.076;-10.4;-17.7;24.7;48.38;1332;2018-04-16 22:41:00:656
9.226;-3.27;1.518;8.657;-4.467;1.13;0.464;1.758;0.018;-1.208;-0.601;0.099;-10.4;-18.4;23.4;48.38;1343;2018-04-16 22:41:00:667
8.602;-1.32;0.706;8.657;-4.467;1.13;0.464;1.758;0.018;-1.283;-0.382;0.193;-10.4;-18.4;23.4;48.38;1353;2018-04-16 22:41:00:677
7.162;-0.426;0.048;8.648;-4.527;0.94;-0.877;3.96;-0.748;-1.283;-0.382;0.193;-10.3;-18.7;22.0;48.38;1363;2018-04-16 22:41:00:687
7.162;-0.426;0.048;8.648;-4.527;0.94;-0.877;3.96;-0.748;-1.355;-0.552;0.378;-10.3;-18.7;22.0;48.38;1373;2018-04-16 22:41:00:697
5.641;-0.582;1.007;8.612;-4.64;0.691;-2.971;4.058;0.315;-1.384;-0.871;0.666;-10.1;-18.6;23.6;48.38;1383;2018-04-16 22:41:00:707
4.725;-0.869;0.437;8.612;-4.64;0.691;-2.971;4.058;0.315;-1.251;-1.282;1.052;-10.1;-18.6;23.6;48.38;1393;2018-04-16 22:41:00:717
4.725;-0.869;0.437;8.501;-4.879;0.32;-3.712;3.528;-0.141;-1.147;-1.652;1.526;-10.1;-19.5;22.7;48.38;1402;2018-04-16 22:41:00:726
5.96;-3.218;0.368;8.501;-4.879;0.32;-3.712;3.528;-0.141;-1.206;-1.857;2.343;-10.1;-19.5;22.7;48.38;1412;2018-04-16 22:41:00:736
8.185;-7.665;0.655;8.263;-5.281;-0.104;-0.596;-0.737;0.829;-1.234;-1.784;2.964;-9.5;-19.4;23.5;48.38;1423;2018-04-16 22:41:00:747
8.185;-7.665;0.655;8.263;-5.281;-0.104;-0.596;-0.737;0.829;-1.203;-1.741;3.74;-9.5;-19.4;23.5;48.38;1433;2018-04-16 22:41:00:757
6.297;-10.487;0.401;7.824;-5.889;-0.521;-1.527;-4.597;0.922;-1.016;-1.91;4.756;-9.6;-19.8;23.6;48.38;1443;2018-04-16 22:41:00:767
3.287;-10.509;-0.426;7.824;-5.889;-0.521;-1.527;-4.597;0.922;-0.696;-2.255;5.886;-9.6;-19.8;23.6;48.38;1453;2018-04-16 22:41:00:777
3.287;-10.509;-0.426;7.037;-6.764;-0.945;-4.421;-3.363;0.361;-0.253;-2.74;6.937;-9.9;-19.4;22.4;48.38;1463;2018-04-16 22:41:00:787
2.325;-7.573;-0.326;7.037;-6.764;-0.945;-4.421;-3.363;0.361;0.294;-3.074;7.746;-9.9;-19.4;22.4;48.38;1473;2018-04-16 22:41:00:797
2.318;-4.672;2.421;5.847;-7.767;-1.286;-3.471;2.407;2.156;1.273;-2.551;7.878;-10.5;-18.7;23.5;48.38;1483;2018-04-16 22:41:00:807
2.318;-4.672;2.421;5.847;-7.767;-1.286;-3.471;2.407;2.156;2.137;-1.426;7.55;-10.5;-18.7;23.5;48.38;1493;2018-04-16 22:41:00:817
1.621;-3.025;1.3;4.537;-8.611;-1.202;-2.916;5.585;2.502;2.6;-0.729;7.211;-10.2;-18.1;24.0;48.38;1502;2018-04-16 22:41:00:826
1.073;-2.613;0.819;4.537;-8.611;-1.202;-2.916;5.585;2.502;2.86;-0.13;6.864;-10.2;-18.1;24.0;48.38;1512;2018-04-16 22:41:00:836
1.073;-2.613;0.819;3.274;-9.214;-0.744;-2.341;6.355;0.788;2.875;0.098;6.673;-9.9;-18.5;24.2;48.38;1522;2018-04-16 22:41:00:846
0.564;-3.065;-0.08;3.274;-9.214;-0.744;-2.341;6.355;0.788;2.661;0.149;6.566;-9.9;-18.5;24.2;48.38;1532;2018-04-16 22:41:00:856
0.533;-2.28;0.466;2.043;-9.588;-0.244;-1.561;6.807;0.596;2.166;0.439;6.352;-9.8;-17.7;24.4;48.38;1542;2018-04-16 22:41:00:866
0.533;-2.28;0.466;2.043;-9.588;-0.244;-1.561;6.807;0.596;1.429;0.874;5.949;-9.8;-17.7;24.4;48.38;1552;2018-04-16 22:41:00:876
0.218;-1.68;-0.566;0.897;-9.765;0.05;-0.679;8.086;-0.616;0.786;0.755;5.558;-11.6;-12.8;25.2;48.38;1563;2018-04-16 22:41:00:887
0.129;-1.107;-2.577;0.897;-9.765;0.05;-0.679;8.086;-0.616;0.615;-0.502;5.192;-11.6;-12.8;25.2;48.38;1573;2018-04-16 22:41:00:897
0.129;-1.107;-2.577;-0.116;-9.804;0.167;0.323;8.774;-2.872;0.497;-1.839;4.812;-13.0;-9.5;24.6;48.38;1583;2018-04-16 22:41:00:907
0.371;-1.055;-4.227;-0.116;-9.804;0.167;0.323;8.774;-2.872;0.195;-3.227;4.388;-13.0;-9.5;24.6;48.38;1593;2018-04-16 22:41:00:917
-10.228;-29.576;-2.531;-0.967;-9.756;0.242;-2.247;-7.457;-3.729;-0.105;-4.902;4.39;-13.0;-6.8;25.9;48.38;1603;2018-04-16 22:41:00:927
-10.228;-29.576;-2.531;-0.967;-9.756;0.242;-2.247;-7.457;-3.729;-0.65;-6.093;6.338;-13.0;-6.8;25.9;56.1;1613;2018-04-16 22:41:00:937
-1.508;-39.185;0.045;-2.082;-9.58;0.245;0.573;-29.605;-0.199;-2.533;-6.27;4.685;-11.0;-4.6;29.7;56.1;1622;2018-04-16 22:41:00:946
-6.535;-36.258;7.233;-2.082;-9.58;0.245;0.573;-29.605;-0.199;-4.759;-7.009;-0.656;-11.0;-4.6;29.7;56.1;1632;2018-04-16 22:41:00:956
-6.535;-36.258;7.233;-2.061;-9.582;-0.327;-5.377;-22.39;8.683;-4.861;-6.084;-1.618;-7.0;-5.3;27.6;56.1;1642;2018-04-16 22:41:00:966
-5.836;-20.886;6.173;-2.061;-9.582;-0.327;-5.377;-22.39;8.683;-4.368;-5.08;-1.051;-7.0;-5.3;27.6;56.1;1652;2018-04-16 22:41:00:976
-0.333;-4.568;1.547;-1.926;-9.569;-0.949;-0.382;-0.901;4.433;-3.427;-4.625;-0.624;-5.0;-6.7;28.8;56.1;1662;2018-04-16 22:41:00:986
-0.333;-4.568;1.547;-1.926;-9.569;-0.949;-0.382;-0.901;4.433;-0.027;-7.376;-0.695;-5.0;-6.7;28.8;56.1;1673;2018-04-16 22:41:00:997
-0.136;-0.711;3.616;-1.916;-9.593;-0.689;1.78;8.882;4.306;2.288;-8.572;-0.893;-2.6;-8.9;29.8;56.1;1683;2018-04-16 22:41:01:007
-2.006;-2.848;3.259;-1.916;-9.593;-0.689;1.78;8.882;4.306;3.125;-8.145;-0.915;-2.6;-8.9;29.8;56.1;1693;2018-04-16 22:41:01:017
-2.006;-2.848;3.259;-1.785;-9.641;0.201;-0.633;6.612;2.448;3.302;-7.025;-0.831;2.7;-6.9;28.3;56.1;1703;2018-04-16 22:41:01:027
-4.853;-5.124;-0.341;-1.785;-9.641;0.201;-0.633;6.612;2.448;3.323;-4.91;-0.706;2.7;-6.9;28.3;56.1;1713;2018-04-16 22:41:01:037
-6.244;-9.567;-1.885;-1.606;-9.626;0.966;-4.898;0.95;-2.941;2.393;-0.849;-0.485;5.8;-4.7;26.1;56.1;1723;2018-04-16 22:41:01:047
-6.244;-9.567;-1.885;-1.606;-9.626;0.966;-4.898;0.95;-2.941;0.943;3.201;-0.337;5.8;-4.7;26.1;56.1;1732;2018-04-16 22:41:01:056
-3.26;-8.35;-2.012;-1.606;-9.619;1.032;-1.654;1.269;-3.044;-0.272;5.572;-0.457;5.7;-4.8;30.2;56.1;1742;2018-04-16 22:41:01:066
-3.905;-10.813;0.293;-1.606;-9.619;1.032;-1.654;1.269;-3.044;-0.863;6.542;-0.6;5.7;-4.8;30.2;56.1;1752;2018-04-16 22:41:01:076
-3.905;-10.813;0.293;-1.615;-9.65;0.661;-2.497;-1.6;-0.321;-0.98;6.96;-0.243;3.2;-4.1;29.6;56.1;1762;2018-04-16 22:41:01:086
-3.797;-11.553;-0.644;-1.615;-9.65;0.661;-2.497;-1.6;-0.321;-0.861;6.705;0.112;3.2;-4.1;29.6;56.1;1773;2018-04-16 22:41:01:097
-2.257;-10.568;-2.853;-1.668;-9.66;0.26;-1.259;-1.476;-2.529;-0.556;5.796;0.296;-0.5;-3.7;31.9;56.1;1783;2018-04-16 22:41:01:107
-2.257;-10.568;-2.853;-1.668;-9.66;0.26;-1.259;-1.476;-2.529;-0.165;4.53;0.23;-0.5;-3.7;31.9;56.1;1793;2018-04-16 22:41:01:117
-1.282;-9.364;-1.457;-1.73;-9.653;0.011;0.448;0.289;-1.468;-0.037;3.737;0.011;-3.2;-5.6;30.1;56.1;1803;2018-04-16 22:41:01:127
-2.199;-9.454;-0.674;-1.73;-9.653;0.011;0.448;0.289;-1.468;-0.077;3.304;-0.089;-3.2;-5.6;30.1;56.1;1813;2018-04-16 22:41:01:137
-2.199;-9.454;-0.674;-1.718;-9.654;-0.124;-0.56;0.295;-0.447;-0.155;3.007;-0.012;-4.6;-5.1;30.1;56.1;1823;2018-04-16 22:41:01:147
-2.105;-9.329;-0.476;-1.718;-9.654;-0.124;-0.56;0.295;-0.447;-0.209;2.627;0.098;-4.6;-5.1;30.1;56.1;1833;2018-04-16 22:41:01:157
-1.375;-9.5;-0.268;-1.726;-9.65;-0.253;0.301;0.471;-0.125;-0.175;2.02;0.108;-6.6;-5.4;30.4;56.1;1842;2018-04-16 22:41:01:166
-1.375;-9.5;-0.268;-1.726;-9.65;-0.253;0.301;0.471;-0.125;-0.128;1.39;0.089;-6.6;-5.4;30.4;56.1;1852;2018-04-16 22:41:01:176
-1.544;-10.047;-0.148;-1.733;-9.647;-0.324;0.189;-0.401;0.176;-0.089;0.809;0.1;-7.4;-5.1;29.5;56.1;1862;2018-04-16 22:41:01:186
-1.383;-9.995;0.159;-1.733;-9.647;-0.324;0.189;-0.401;0.176;-0.04;0.264;0.138;-7.4;-5.1;29.5;56.1;1872;2018-04-16 22:41:01:196
-1.383;-9.995;0.159;-1.755;-9.642;-0.338;0.44;-0.274;0.582;-0.005;-0.183;0.158;-6.9;-4.4;30.1;56.1;1882;2018-04-16 22:41:01:206
-1.237;-9.78;0.381;-1.755;-9.642;-0.338;0.44;-0.274;0.582;0.006;-0.544;0.169;-6.9;-4.4;30.1;56.1;1892;2018-04-16 22:41:01:216
-1.173;-9.528;0.555;-1.787;-9.637;-0.31;0.58;0.003;0.814;-0.006;-0.786;0.186;-6.8;-4.0;30.3;56.1;1902;2018-04-16 22:41:01:226
-1.173;-9.528;0.555;-1.787;-9.637;-0.31;0.58;0.003;0.814;-0.049;-0.907;0.208;-6.8;-4.0;30.3;56.1;1912;2018-04-16 22:41:01:236
-1.075;-9.343;0.618;-1.826;-9.631;-0.281;0.751;0.288;0.898;-0.117;-0.936;0.222;-6.2;-4.6;30.1;56.1;1923;2018-04-16 22:41:01:247
-0.93;-9.26;0.593;-1.826;-9.631;-0.281;0.751;0.288;0.898;-0.194;-0.919;0.219;-6.2;-4.6;30.1;67.8;1933;2018-04-16 22:41:01:257
-0.93;-9.26;0.593;-1.867;-9.623;-0.277;0.967;0.316;0.878;-0.253;-0.893;0.208;-6.1;-5.7;29.4;67.8;1943;2018-04-16 22:41:01:267
-0.882;-9.468;0.585;-1.867;-9.623;-0.277;0.967;0.316;0.878;-0.292;-0.877;0.191;-6.1;-5.7;29.4;67.8;1953;2018-04-16 22:41:01:277
-0.82;-9.731;0.656;-1.899;-9.616;-0.292;1.054;-0.009;0.906;-0.303;-0.88;0.177;-5.5;-5.5;31.1;67.8;1963;2018-04-16 22:41:01:287
-0.82;-9.731;0.656;-1.899;-9.616;-0.292;1.054;-0.009;0.906;-0.274;-0.896;0.161;-5.5;-5.5;31.1;67.8;1973;2018-04-16 22:41:01:297
-0.71;-9.726;0.663;-1.925;-9.611;-0.299;1.215;-0.115;0.962;-0.221;-0.916;0.138;-4.8;-4.8;30.2;67.8;1982;2018-04-16 22:41:01:306
-0.657;-9.742;0.661;-1.925;-9.611;-0.299;1.215;-0.115;0.962;-0.156;-0.918;0.101;-4.8;-4.8;30.2;67.8;1992;2018-04-16 22:41:01:316
-0.657;-9.742;0.661;-1.937;-9.609;-0.283;1.284;-0.079;0.927;-0.075;-0.924;0.068;-4.8;-4.5;30.9;67.8;2002;2018-04-16 22:41:01:326
-0.727;-9.58;0.583;-1.937;-9.609;-0.283;1.284;-0.079;0.927;0.026;-0.931;0.033;-4.8;-4.5;30.9;67.8;2013;2018-04-16 22:41:01:337
-0.921;-9.402;0.08;-1.938;-9.61;-0.233;1.1;0.163;0.48;0.211;-1.038;-0.007;-4.8;-5.3;30.5;67.8;2023;2018-04-16 22:41:01:347
-0.921;-9.402;0.08;-1.938;-9.61;-0.233;1.1;0.163;0.48;0.607;-1.447;-0.077;-4.8;-5.3;30.5;67.8;2033;2018-04-16 22:41:01:357
-1.493;-9.589;0.201;-1.922;-9.616;-0.052;0.429;0.028;0.253;1.147;-1.939;-0.105;-4.9;-5.1;30.2;67.8;2042;2018-04-16 22:41:01:366
-1.895;-9.701;-0.157;-1.922;-9.616;-0.052;0.429;0.028;0.253;1.217;-1.921;-0.077;-4.9;-5.1;30.2;67.8;2052;2018-04-16 22:41:01:376
-1.895;-9.701;-0.157;-1.9;-9.618;0.246;-0.064;-0.077;-0.678;1.197;-1.868;-0.066;-5.6;-4.9;30.3;67.8;2062;2018-04-16 22:41:01:386
-2.167;-9.744;-1.35;-1.9;-9.618;0.246;-0.064;-0.077;-0.678;1.146;-1.858;-0.086;-5.6;-4.9;30.3;67.8;2073;2018-04-16 22:41:01:397
-2.716;-9.819;-2.497;-1.873;-9.611;0.531;-0.687;-0.18;-2.836;1.005;-1.783;-0.084;-5.8;-4.9;30.2;67.8;2083;2018-04-16 22:41:01:407
-2.716;-9.819;-2.497;-1.873;-9.611;0.531;-0.687;-0.18;-2.836;0.71;-1.506;-0.059;-5.8;-4.9;30.2;67.8;2093;2018-04-16 22:41:01:417
-2.945;-9.726;-2.316;-1.848;-9.605;0.707;-1.097;-0.121;-3.023;0.272;-0.983;-0.013;-5.8;-4.8;30.3;67.8;2103;2018-04-16 22:41:01:427
-2.756;-9.4;-1.046;-1.848;-9.605;0.707;-1.097;-0.121;-3.023;-0.221;-0.301;0.039;-5.8;-4.8;30.3;67.8;2113;2018-04-16 22:41:01:437
-2.756;-9.4;-1.046;-1.86;-9.606;0.658;-0.797;0.232;-1.396;-0.629;0.381;0.072;-5.6;-4.7;30.5;67.8;2123;2018-04-16 22:41:01:447
-2.404;-9.433;-0.013;-1.86;-9.606;0.658;-0.797;0.232;-1.396;-0.859;0.918;0.097;-5.6;-4.7;30.5;67.8;2132;2018-04-16 22:41:01:456
-1.788;-9.552;0.743;-1.891;-9.612;0.459;-0.126;0.112;-0.005;-0.911;1.275;0.087;-5.2;-4.6;30.5;67.8;2142;2018-04-16 22:41:01:466
-1.788;-9.552;0.743;-1.891;-9.612;0.459;-0.126;0.112;-0.005;-0.911;1.275;0.087;-5.2;-4.6;30.5;67.8;2152;2018-04-16 22:41:01:476
-1.574;-9.655;1.185;-1.907;-9.616;0.25;0.333;-0.039;0.935;-0.777;1.574;0.031;-4.7;-4.5;30.5;67.8;2162;2018-04-16 22:41:01:486
-1.48;-9.655;1.452;-1.907;-9.616;0.25;0.333;-0.039;0.935;-0.523;1.753;-0.018;-4.7;-4.5;30.5;67.8;2172;2018-04-16 22:41:01:496
-1.48;-9.655;1.452;-1.905;-9.619;0.096;0.417;-0.017;1.359;-0.323;1.824;-0.054;-4.3;-4.5;30.7;67.8;2182;2018-04-16 22:41:01:506
-1.554;-9.56;1.587;-1.905;-9.619;0.096;0.417;-0.017;1.359;-0.116;1.822;-0.088;-4.3;-4.5;30.7;67.8;2192;2018-04-16 22:41:01:516
-1.408;-9.336;1.67;-1.886;-9.624;0.023;0.548;0.401;2.229;0.054;1.752;-0.111;-4.1;-4.5;30.7;67.8;2202;2018-04-16 22:41:01:526
-1.408;-9.336;1.67;-1.886;-9.624;0.023;0.548;0.401;2.229;0.23;1.428;-0.109;-4.1;-4.5;30.7;67.8;2212;2018-04-16 22:41:01:536
-1.891;-9.68;0.393;-1.865;-9.628;0.023;-0.026;-0.052;0.37;0.353;0.881;-0.079;-3.8;-4.5;30.9;67.8;2222;2018-04-16 22:41:01:546
-2.182;-9.805;-0.33;-1.865;-9.628;0.023;-0.026;-0.052;0.37;0.489;0.156;-0.067;-3.8;-4.5;30.9;67.8;2233;2018-04-16 22:41:01:557
-2.182;-9.805;-0.33;-1.854;-9.629;0.107;-0.472;-0.191;-0.516;0.523;-0.472;-0.046;-3.6;-4.3;30.9;67.8;2242;2018-04-16 22:41:01:566
-2.354;-9.68;-0.412;-1.854;-9.629;0.107;-0.472;-0.191;-0.516;0.474;-0.869;0.01;-3.6;-4.3;30.9;67.8;2253;2018-04-16 22:41:01:577
-2.016;-9.407;-0.431;-1.856;-9.627;0.223;-0.274;0.167;-0.633;0.395;-1.1;0.046;-3.5;-4.3;30.9;67.8;2263;2018-04-16 22:41:01:587
-2.016;-9.407;-0.431;-1.856;-9.627;0.223;-0.274;0.167;-0.633;0.325;-1.222;0.068;-3.5;-4.3;30.9;44.41;2273;2018-04-16 22:41:01:597
-1.875;-9.499;-0.339;-1.863;-9.623;0.323;-0.012;0.124;-0.662;0.275;-1.236;0.073;-3.4;-4.1;31.0;44.41;2283;2018-04-16 22:41:01:607
-1.664;-9.594;-0.166;-1.863;-9.623;0.323;-0.012;0.124;-0.662;0.232;-1.117;0.072;-3.4;-4.1;31.0;44.41;2293;2018-04-16 22:41:01:617
-1.664;-9.594;-0.166;-1.866;-9.619;0.403;0.28;0.052;-0.522;0.189;-0.869;0.054;-3.2;-4.0;31.0;44.41;2303;2018-04-16 22:41:01:627
-1.505;-9.568;-0.079;-1.866;-9.619;0.403;0.28;0.052;-0.522;0.149;-0.514;0.031;-3.2;-4.0;31.0;44.41;2312;2018-04-16 22:41:01:636
-1.426;-9.64;-0.061;-1.864;-9.618;0.444;0.427;-0.021;-0.505;0.098;0.1;-0.007;-3.1;-3.9;30.9;44.41;2322;2018-04-16 22:41:01:646
-1.426;-9.64;-0.061;-1.864;-9.618;0.444;0.427;-0.021;-0.505;0.056;0.476;-0.039;-3.1;-3.9;30.9;44.41;2332;2018-04-16 22:41:01:656
-1.544;-9.703;-0.059;-1.858;-9.619;0.442;0.314;-0.084;-0.501;0.006;0.771;-0.061;-3.0;-3.8;30.9;44.41;2342;2018-04-16 22:41:01:666
-1.676;-9.701;-0.067;-1.858;-9.619;0.442;0.314;-0.084;-0.501;-0.053;0.965;-0.078;-3.0;-3.8;30.9;44.41;2352;2018-04-16 22:41:01:676
-1.676;-9.701;-0.067;-1.85;-9.622;0.4;0.136;-0.049;-0.488;-0.136;1.076;-0.089;-3.0;-3.6;31.0;44.41;2363;2018-04-16 22:41:01:687
-1.76;-9.612;-0.09;-1.85;-9.622;0.4;0.136;-0.049;-0.488;-0.235;1.098;-0.083;-3.0;-3.6;31.0;44.41;2373;2018-04-16 22:41:01:697
-1.76;-9.612;-0.09;-1.842;-9.627;0.309;0.014;0.017;-0.455;-0.235;1.098;-0.083;-3.0;-3.6;31.0;44.41;2383;2018-04-16 22:41:01:707
-1.859;-9.608;-0.275;-1.842;-9.627;0.309;0.014;0.017;-0.455;-0.365;0.979;-0.048;-3.0;-3.6;31.0;44.41;2393;2018-04-16 22:41:01:717
-1.859;-9.608;-0.275;-1.839;-9.631;0.193;-0.028;0.001;-0.539;-0.435;0.792;-0.024;-3.0;-3.6;31.0;44.41;2403;2018-04-16 22:41:01:727
-1.851;-9.633;-0.366;-1.839;-9.631;0.193;-0.011;-0.002;-0.507;-0.474;0.54;-0.002;-3.2;-3.7;30.9;44.41;2413;2018-04-16 22:41:01:737
-1.851;-9.633;-0.366;-1.839;-9.631;0.193;-0.011;-0.002;-0.507;-0.472;0.25;-0.002;-3.2;-3.7;30.9;44.41;2423;2018-04-16 22:41:01:747
-1.786;-9.625;-0.261;-1.841;-9.632;0.085;0.055;0.007;-0.346;-0.472;0.25;0.013;-3.5;-3.7;30.9;44.41;2433;2018-04-16 22:41:01:757
-1.639;-9.626;0.206;-1.845;-9.632;0.018;0.206;0.006;0.188;-0.353;-0.314;0.028;-3.8;-3.7;30.9;44.41;2443;2018-04-16 22:41:01:767
-1.614;-9.601;0.509;-1.845;-9.632;0.018;0.206;0.006;0.188;-0.286;-0.527;0.026;-3.9;-3.7;30.9;44.41;2453;2018-04-16 22:41:01:777
-1.614;-9.601;0.509;-1.847;-9.631;-0.012;0.237;0.033;0.605;-0.286;-0.527;0.026;-3.9;-3.7;30.9;44.41;2463;2018-04-16 22:41:01:787
-1.638;-9.602;0.712;-1.847;-9.631;-0.012;0.237;0.033;0.605;-0.236;-0.584;0.023;-4.1;-3.7;31.0;44.41;2473;2018-04-16 22:41:01:797
-1.675;-9.547;0.837;-1.85;-9.631;-0.024;0.192;0.071;0.815;-0.195;-0.573;0.021;-4.1;-3.7;31.0;44.41;2483;2018-04-16 22:41:01:807
-1.675;-9.547;0.837;-1.85;-9.631;-0.024;0.192;0.071;0.815;-0.114;-0.523;0.015;-4.2;-3.7;31.0;44.41;2493;2018-04-16 22:41:01:817
-1.729;-9.494;0.837;-1.851;-9.63;-0.017;0.123;0.136;0.854;-0.114;-0.523;0.015;-4.2;-3.7;31.0;44.41;2503;2018-04-16 22:41:01:827
-1.766;-9.504;0.767;-1.851;-9.63;-0.017;0.123;0.136;0.854;-0.011;-0.467;0.009;-4.2;-3.7;30.9;44.41;2512;2018-04-16 22:41:01:836
-1.781;-9.521;0.657;-1.852;-9.63;0.014;0.079;0.126;0.695;0.073;-0.451;0.002;-4.1;-3.7;30.9;44.41;2526;2018-04-16 22:41:01:850
-1.781;-9.521;0.657;-1.852;-9.63;0.014;0.079;0.126;0.695;0.164;-0.453;-0.002;-4.1;-3.7;30.9;44.41;2533;2018-04-16 22:41:01:857
-1.822;-9.568;0.469;-1.851;-9.63;0.076;0.029;0.062;0.393;0.25;-0.461;-0.002;-4.0;-3.7;30.8;44.41;2549;2018-04-16 22:41:01:873
-1.822;-9.568;0.469;-1.851;-9.63;0.076;0.029;0.062;0.393;0.25;-0.461;-0.002;-4.0;-3.7;30.8;44.41;2553;2018-04-16 22:41:01:877
-1.738;-9.588;0.026;-1.849;-9.629;0.157;0.111;0.042;-0.131;0.348;-0.483;0.001;-3.9;-3.8;30.9;44.41;2563;2018-04-16 22:41:01:887
-1.69;-9.574;-0.336;-1.849;-9.629;0.157;0.111;0.042;-0.131;0.365;-0.524;-0.002;-3.9;-3.8;30.9;44.41;2573;2018-04-16 22:41:01:897
-1.69;-9.574;-0.336;-1.845;-9.629;0.24;0.163;0.053;-0.642;0.365;-0.524;-0.002;-3.9;-3.9;30.9;44.41;2583;2018-04-16 22:41:01:907
-1.683;-9.612;-0.527;-1.845;-9.629;0.24;0.163;0.053;-0.642;0.316;-0.54;0.001;-3.9;-3.9;30.9;42.76;2593;2018-04-16 22:41:01:917
-1.678;-9.634;-0.548;-1.841;-9.627;0.306;0.164;0.016;-0.856;0.25;-0.513;0.001;-3.8;-3.9;30.9;42.76;2603;2018-04-16 22:41:01:927
-1.678;-9.634;-0.548;-1.841;-9.627;0.306;0.164;0.016;-0.856;0.06;-0.347;0.01;-3.8;-3.9;30.9;42.76;2613;2018-04-16 22:41:01:937
-1.696;-9.647;-0.474;-1.839;-9.627;0.332;0.142;-0.02;-0.806;0.06;-0.347;0.01;-3.8;-4.0;30.9;42.76;2623;2018-04-16 22:41:01:947
-1.696;-9.647;-0.474;-1.839;-9.627;0.332;0.142;-0.02;-0.806;-0.042;-0.215;0.012;-3.8;-4.0;30.9;42.76;2633;2018-04-16 22:41:01:957
-1.729;-9.644;-0.357;-1.839;-9.627;0.332;0.142;-0.02;-0.806;-0.042;-0.215;0.012;-3.8;-4.0;30.9;42.76;2643;2018-04-16 22:41:01:967
-1.762;-9.613;0.068;-1.839;-9.628;0.314;0.108;-0.021;-0.577;-0.13;-0.068;0.012;-3.8;-4.0;31.0;42.76;2653;2018-04-16 22:41:01:977
-1.762;-9.613;0.068;-1.839;-9.628;0.314;0.108;-0.021;-0.577;-0.221;0.276;0.011;-3.7;-4.1;31.0;42.76;2663;2018-04-16 22:41:01:987
-1.725;-9.589;0.305;-1.842;-9.629;0.238;0.117;0.04;0.067;-0.204;0.442;0.001;-3.7;-4.1;31.0;42.76;2673;2018-04-16 22:41:01:997
-1.683;-9.558;0.433;-1.842;-9.629;0.238;0.117;0.04;0.067;-0.182;0.534;-0.005;-3.6;-4.2;31.0;42.76;2683;2018-04-16 22:41:02:007
-1.683;-9.558;0.433;-1.842;-9.63;0.186;0.174;0.083;0.25;-0.182;0.534;-0.005;-3.6;-4.2;31.0;42.76;2693;2018-04-16 22:41:02:017
-1.651;-9.538;0.409;-1.842;-9.63;0.186;0.174;0.083;0.25;-0.139;0.621;-0.013;-3.5;-4.2;31.0;42.76;2703;2018-04-16 22:41:02:027
-1.648;-9.564;0.305;-1.839;-9.632;0.141;0.181;0.085;0.21;-0.11;0.63;-0.018;-3.5;-4.2;31.0;42.76;2713;2018-04-16 22:41:02:037
-1.674;-9.59;0.183;-1.837;-9.632;0.121;0.186;0.07;0.137;-0.082;0.597;-0.02;-3.5;-4.2;31.0;42.76;2726;2018-04-16 22:41:02:050
-1.674;-9.59;0.183;-1.837;-9.632;0.121;0.186;0.07;0.137;-0.032;0.476;-0.02;-3.3;-4.3;30.9;42.76;2732;2018-04-16 22:41:02:056
-1.674;-9.59;0.183;-1.833;-9.633;0.098;0.148;0.018;0.011;-0.032;0.476;-0.02;-3.3;-4.3;30.9;42.76;2743;2018-04-16 22:41:02:067
-1.689;-9.602;0.051;-1.833;-9.633;0.098;0.148;0.018;0.011;-0.006;0.358;-0.02;-3.3;-4.2;31.0;42.76;2753;2018-04-16 22:41:02:077
-1.709;-9.582;0.043;-1.829;-9.634;0.091;0.119;0.053;-0.048;0.009;0.156;-0.016;-3.2;-4.3;31.0;42.76;2762;2018-04-16 22:41:02:086
-1.785;-9.568;0.042;-1.829;-9.634;0.091;0.119;0.053;-0.048;0.005;-0.039;-0.009;-3.2;-4.3;31.0;42.76;2773;2018-04-16 22:41:02:097
-1.785;-9.568;0.042;-1.827;-9.635;0.093;0.009;0.06;-0.049;0.005;-0.039;-0.009;-3.2;-4.3;31.0;42.76;2782;2018-04-16 22:41:02:106
-1.845;-9.568;0.067;-1.827;-9.635;0.093;0.009;0.06;-0.049;-0.01;-0.22;0.002;-3.2;-4.3;31.0;42.76;2793;2018-04-16 22:41:02:117
-1.853;-9.55;0.115;-1.828;-9.634;0.101;-0.025;0.084;0.014;-0.011;-0.326;0.01;-3.2;-4.3;31.0;42.76;2802;2018-04-16 22:41:02:126
-1.879;-9.544;0.194;-1.828;-9.634;0.101;-0.025;0.084;0.014;0.011;-0.457;0.017;-3.2;-4.3;31.0;42.76;2812;2018-04-16 22:41:02:136
-1.879;-9.544;0.194;-1.83;-9.634;0.12;-0.055;0.068;0.097;0.037;-0.512;0.021;-3.1;-4.3;31.0;42.76;2823;2018-04-16 22:41:02:147
-1.884;-9.561;0.266;-1.83;-9.634;0.12;-0.055;0.068;0.097;0.064;-0.535;0.02;-3.1;-4.3;31.0;42.76;2833;2018-04-16 22:41:02:157
-1.856;-9.541;0.289;-1.833;-9.632;0.153;-0.027;0.082;0.137;0.09;-0.525;0.02;-3.1;-4.4;31.0;42.76;2843;2018-04-16 22:41:02:167
-1.856;-9.541;0.289;-1.833;-9.632;0.153;-0.027;0.082;0.137;0.103;-0.474;0.018;-3.1;-4.4;31.0;42.76;2853;2018-04-16 22:41:02:177
-1.865;-9.561;0.248;-1.836;-9.631;0.191;-0.029;0.07;0.057;0.111;-0.398;0.016;-3.1;-4.4;30.9;42.76;2863;2018-04-16 22:41:02:187
-1.852;-9.537;0.169;-1.836;-9.631;0.191;-0.029;0.07;0.057;0.111;-0.303;0.013;-3.1;-4.4;30.9;42.76;2873;2018-04-16 22:41:02:197
-1.852;-9.537;0.169;-1.837;-9.63;0.222;-0.004;0.094;-0.089;0.1;-0.144;0.007;-3.1;-4.4;30.9;42.76;2883;2018-04-16 22:41:02:207
-1.827;-9.521;0.066;-1.837;-9.63;0.222;-0.004;0.094;-0.089;0.082;-0.035;0.005;-3.1;-4.4;30.9;42.76;2893;2018-04-16 22:41:02:217
-1.846;-9.538;0.005;-1.838;-9.63;0.241;0.007;0.096;-0.199;0.059;0.067;-0.002;-3.1;-4.4;30.9;42.76;2903;2018-04-16 22:41:02:227
-1.846;-9.538;0.005;-1.838;-9.63;0.241;0.007;0.096;-0.199;0.028;0.161;-0.004;-3.1;-4.4;30.9;47.85;2913;2018-04-16 22:41:02:237
-1.82;-9.562;-0.037;-1.838;-9.63;0.242;0.018;0.067;-0.279;-0.007;0.244;-0.005;-3.1;-4.4;30.9;47.85;2923;2018-04-16 22:41:02:247
-1.802;-9.579;-0.034;-1.838;-9.63;0.242;0.018;0.067;-0.279;-0.04;0.307;-0.004;-3.1;-4.4;30.9;47.85;2933;2018-04-16 22:41:02:257
-1.802;-9.579;-0.034;-1.838;-9.63;0.22;0.052;0.043;-0.232;-0.04;0.307;-0.004;-3.1;-4.4;30.8;47.85;2943;2018-04-16 22:41:02:267
-1.792;-9.602;0.02;-1.838;-9.63;0.22;0.052;0.043;-0.232;-0.077;0.353;-0.005;-3.1;-4.4;30.8;47.85;2953;2018-04-16 22:41:02:277
-1.8;-9.627;0.048;-1.838;-9.631;0.189;0.038;0.004;-0.141;-0.093;0.362;-0.002;-3.1;-4.4;30.8;47.85;2963;2018-04-16 22:41:02:287
-1.8;-9.627;0.048;-1.838;-9.631;0.189;0.038;0.004;-0.141;-0.095;0.341;-0.002;-3.1;-4.4;30.8;47.85;2973;2018-04-16 22:41:02:297
-1.799;-9.594;0.134;-1.839;-9.631;0.158;0.039;0.038;-0.023;-0.09;0.31;0.0;-3.2;-4.3;30.7;47.85;2983;2018-04-16 22:41:02:307
-1.791;-9.55;0.196;-1.839;-9.631;0.158;0.039;0.038;-0.023;-0.09;0.31;0.0;-3.2;-4.3;30.7;47.85;2993;2018-04-16 22:41:02:317
-1.791;-9.55;0.196;-1.839;-9.632;0.134;0.054;0.086;0.08;-0.064;0.239;0.0;-3.2;-4.3;30.7;47.85;3003;2018-04-16 22:41:02:327
-1.78;-9.546;0.202;-1.839;-9.632;0.134;0.054;0.086;0.08;-0.027;0.148;0.006;-3.2;-4.3;30.7;47.85;3013;2018-04-16 22:41:02:337
-1.776;-9.56;0.2;-1.84;-9.632;0.124;0.063;0.072;0.075;-0.015;0.119;0.007;-3.2;-4.3;30.7;47.85;3023;2018-04-16 22:41:02:347
-1.776;-9.56;0.2;-1.84;-9.632;0.124;0.063;0.072;0.075;-0.015;0.119;0.007;-3.2;-4.3;30.7;47.85;3041;2018-04-16 22:41:02:365
-1.776;-9.56;0.2;-1.84;-9.632;0.124;0.063;0.072;0.075;-0.015;0.119;0.007;-3.2;-4.3;30.7;47.85;3043;2018-04-16 22:41:02:367
-1.76;-9.573;0.198;-1.84;-9.632;0.125;0.081;0.058;0.073;-0.002;0.088;0.01;-3.2;-4.3;30.8;47.85;3052;2018-04-16 22:41:02:376
-1.68;-9.612;0.101;-1.84;-9.632;0.125;0.081;0.058;0.073;0.037;-0.132;0.015;-3.2;-4.2;30.7;47.85;3063;2018-04-16 22:41:02:387
-1.68;-9.612;0.101;-1.843;-9.631;0.143;0.173;0.029;-0.075;0.037;-0.132;0.015;-3.2;-4.2;30.7;47.85;3073;2018-04-16 22:41:02:397
-1.682;-9.608;0.043;-1.843;-9.631;0.143;0.173;0.029;-0.075;0.044;-0.204;0.013;-3.2;-4.2;30.6;47.85;3083;2018-04-16 22:41:02:407
-1.69;-9.595;0.042;-1.843;-9.631;0.159;0.149;0.027;-0.116;0.06;-0.264;0.012;-3.2;-4.2;30.6;47.85;3093;2018-04-16 22:41:02:417
-1.69;-9.595;0.042;-1.843;-9.63;0.171;0.15;0.04;-0.132;0.061;-0.277;0.011;-3.1;-4.2;30.6;47.85;3103;2018-04-16 22:41:02:427
-1.702;-9.595;0.042;-1.843;-9.63;0.171;0.15;0.04;-0.132;0.061;-0.277;0.011;-3.1;-4.2;30.6;47.85;3113;2018-04-16 22:41:02:437
-1.702;-9.595;0.042;-1.842;-9.63;0.191;0.116;0.028;-0.148;0.062;-0.276;0.006;-3.1;-4.2;30.6;47.85;3123;2018-04-16 22:41:02:447
-1.75;-9.603;0.045;-1.842;-9.63;0.191;0.116;0.028;-0.148;0.038;-0.217;0.009;-3.0;-4.1;30.6;47.85;3132;2018-04-16 22:41:02:456
-1.774;-9.568;0.05;-1.842;-9.63;0.201;0.083;0.047;-0.14;0.016;-0.153;0.009;-3.0;-4.1;30.6;47.85;3143;2018-04-16 22:41:02:467
-1.774;-9.568;0.05;-1.842;-9.63;0.201;0.083;0.047;-0.14;-0.012;-0.046;0.009;-3.0;-4.1;30.7;47.85;3152;2018-04-16 22:41:02:476
-1.779;-9.588;0.048;-1.843;-9.63;0.199;0.064;0.042;-0.151;-0.012;-0.046;0.009;-3.0;-4.1;30.7;47.85;3163;2018-04-16 22:41:02:487
-1.798;-9.572;0.067;-1.843;-9.63;0.199;0.064;0.042;-0.151;-0.024;0.049;0.009;-3.0;-4.0;30.7;47.85;3173;2018-04-16 22:41:02:497
-1.798;-9.572;0.067;-1.845;-9.63;0.189;0.062;0.071;-0.123;-0.031;0.099;0.009;-3.0;-4.0;30.7;47.85;3183;2018-04-16 22:41:02:507
-1.772;-9.556;0.062;-1.845;-9.63;0.189;0.062;0.071;-0.123;-0.039;0.166;0.01;-3.0;-4.0;30.7;47.85;3193;2018-04-16 22:41:02:517
-1.751;-9.552;0.096;-1.846;-9.63;0.175;0.084;0.07;-0.085;-0.046;0.188;0.012;-3.0;-4.0;30.7;47.85;3203;2018-04-16 22:41:02:527
-1.751;-9.552;0.096;-1.846;-9.63;0.175;0.084;0.07;-0.085;-0.046;0.188;0.012;-3.0;-4.0;30.7;47.85;3213;2018-04-16 22:41:02:537
-1.759;-9.562;0.12;-1.848;-9.63;0.158;0.09;0.067;-0.038;-0.054;0.198;0.013;-3.0;-4.0;30.7;47.85;3223;2018-04-16 22:41:02:547
-1.754;-9.589;0.127;-1.848;-9.63;0.158;0.09;0.067;-0.038;-0.056;0.186;0.015;-3.1;-4.0;30.7;49.29;3235;2018-04-16 22:41:02:559
-1.754;-9.589;0.127;-1.851;-9.629;0.141;0.088;0.046;0.011;-0.054;0.162;0.018;-3.1;-4.0;30.7;49.29;3243;2018-04-16 22:41:02:567
-1.769;-9.58;0.15;-1.851;-9.629;0.141;0.088;0.046;0.011;-0.054;0.162;0.018;-3.1;-4.0;30.7;49.29;3254;2018-04-16 22:41:02:578
-1.769;-9.58;0.15;-1.851;-9.629;0.141;0.088;0.046;0.011;-0.054;0.162;0.018;-3.1;-4.0;30.7;49.29;3265;2018-04-16 22:41:02:589
-1.772;-9.588;0.151;-1.853;-9.629;0.134;0.081;0.042;0.017;-0.048;0.137;0.017;-3.1;-4.1;30.7;49.29;3273;2018-04-16 22:41:02:597
-1.772;-9.588;0.151;-1.853;-9.629;0.134;0.081;0.042;0.017;-0.005;-0.005;0.016;-3.1;-4.1;30.7;49.29;3283;2018-04-16 22:41:02:607
-1.821;-9.54;0.204;-1.859;-9.628;0.124;0.038;0.088;0.079;-0.005;-0.005;0.016;-3.1;-4.0;30.6;49.29;3293;2018-04-16 22:41:02:617
-1.83;-9.562;0.224;-1.859;-9.628;0.124;0.038;0.088;0.079;0.017;-0.066;0.013;-3.1;-4.0;30.6;49.29;3303;2018-04-16 22:41:02:627
-1.83;-9.562;0.224;-1.861;-9.627;0.132;0.03;0.051;0.08;0.033;-0.106;0.016;-3.1;-4.0;30.4;49.29;3313;2018-04-16 22:41:02:637
-1.829;-9.596;0.183;-1.861;-9.627;0.132;0.03;0.051;0.08;0.043;-0.123;0.018;-3.1;-4.0;30.4;49.29;3323;2018-04-16 22:41:02:647
-1.826;-9.602;0.113;-1.864;-9.627;0.145;0.031;0.025;-0.002;0.046;-0.139;0.017;-3.1;-4.0;30.3;49.29;3333;2018-04-16 22:41:02:657
-1.826;-9.602;0.113;-1.864;-9.627;0.145;0.031;0.025;-0.002;0.05;-0.151;0.018;-3.1;-4.0;30.3;49.29;3343;2018-04-16 22:41:02:667
-1.809;-9.6;0.066;-1.866;-9.626;0.159;0.057;0.027;-0.093;0.055;-0.166;0.021;-3.1;-4.0;30.3;49.29;3353;2018-04-16 22:41:02:677
-1.818;-9.584;0.042;-1.866;-9.626;0.159;0.057;0.027;-0.093;0.055;-0.171;0.02;-3.1;-4.0;30.3;49.29;3363;2018-04-16 22:41:02:687
-1.818;-9.584;0.042;-1.869;-9.625;0.174;0.051;0.042;-0.131;0.044;-0.161;0.022;-3.1;-4.0;30.3;49.29;3373;2018-04-16 22:41:02:697
-1.809;-9.574;0.043;-1.871;-9.625;0.18;0.062;0.05;-0.137;0.034;-0.134;0.021;-3.1;-4.0;30.3;49.29;3383;2018-04-16 22:41:02:707
-1.781;-9.579;0.043;-1.871;-9.625;0.18;0.062;0.05;-0.137;0.015;-0.097;0.022;-3.1;-4.0;30.3;49.29;3393;2018-04-16 22:41:02:717
-1.781;-9.579;0.043;-1.874;-9.624;0.185;0.1;0.051;-0.142;0.015;-0.097;0.022;-3.1;-4.0;30.3;49.29;3403;2018-04-16 22:41:02:727
-1.765;-9.598;0.05;-1.874;-9.624;0.185;0.1;0.051;-0.142;-0.011;-0.023;0.02;-3.1;-4.0;30.2;49.29;3413;2018-04-16 22:41:02:737
-1.765;-9.598;0.05;-1.876;-9.624;0.18;0.104;0.027;-0.123;-0.024;0.023;0.013;-3.1;-4.0;30.2;49.29;3423;2018-04-16 22:41:02:747
-1.782;-9.59;0.081;-1.876;-9.624;0.18;0.104;0.027;-0.123;-0.037;0.083;0.011;-3.1;-4.0;30.2;49.29;3433;2018-04-16 22:41:02:757
-1.805;-9.579;0.109;-1.877;-9.624;0.169;0.091;0.042;-0.058;-0.032;0.115;0.01;-3.1;-4.0;30.2;49.29;3443;2018-04-16 22:41:02:767
-1.805;-9.579;0.109;-1.877;-9.624;0.169;0.091;0.042;-0.058;-0.034;0.137;0.011;-3.1;-4.0;30.2;49.29;3453;2018-04-16 22:41:02:777
-1.797;-9.573;0.124;-1.879;-9.624;0.157;0.082;0.05;-0.033;-0.027;0.149;0.009;-3.1;-4.0;30.2;49.29;3463;2018-04-16 22:41:02:787
-1.799;-9.568;0.113;-1.879;-9.624;0.157;0.082;0.05;-0.033;-0.023;0.145;0.01;-3.0;-4.0;30.1;49.29;3473;2018-04-16 22:41:02:797
-1.799;-9.568;0.113;-1.881;-9.624;0.147;0.091;0.056;-0.048;-0.024;0.136;0.01;-3.0;-4.0;30.1;49.29;3483;2018-04-16 22:41:02:807
-1.797;-9.568;0.104;-1.881;-9.624;0.147;0.091;0.056;-0.048;-0.024;0.122;0.011;-3.0;-4.1;30.2;49.29;3493;2018-04-16 22:41:02:817
-1.802;-9.559;0.109;-1.882;-9.623;0.137;0.082;0.055;-0.017;-0.027;0.101;0.011;-3.0;-4.1;30.2;49.29;3503;2018-04-16 22:41:02:827
-1.802;-9.559;0.109;-1.882;-9.623;0.137;0.082;0.055;-0.017;-0.028;0.078;0.011;-3.0;-4.1;30.3;49.29;3512;2018-04-16 22:41:02:836
-1.81;-9.562;0.128;-1.884;-9.623;0.128;0.074;0.061;0.0;-0.024;0.044;0.009;-3.0;-4.1;30.3;49.29;3523;2018-04-16 22:41:02:847
-1.824;-9.533;0.146;-1.884;-9.623;0.128;0.074;0.061;0.0;-0.021;0.013;0.011;-3.1;-4.1;30.3;49.29;3532;2018-04-16 22:41:02:856
-1.828;-9.544;0.168;-1.885;-9.623;0.125;0.067;0.08;0.038;-0.016;-0.005;0.012;-3.1;-4.1;30.3;49.29;3543;2018-04-16 22:41:02:867
-1.828;-9.544;0.168;-1.885;-9.623;0.125;0.067;0.08;0.038;-0.006;-0.042;0.013;-3.1;-4.1;30.3;49.29;3554;2018-04-16 22:41:02:878
-1.844;-9.548;0.193;-1.888;-9.622;0.126;0.044;0.074;0.067;-0.006;-0.042;0.013;-3.1;-4.0;30.4;49.29;3563;2018-04-16 22:41:02:887
-1.844;-9.548;0.193;-1.888;-9.622;0.126;0.044;0.074;0.067;0.011;-0.066;0.012;-3.1;-4.0;30.4;50.08;3573;2018-04-16 22:41:02:897
-1.82;-9.573;0.187;-1.889;-9.622;0.132;0.07;0.049;0.054;0.026;-0.078;0.012;-3.1;-4.1;30.3;50.08;3583;2018-04-16 22:41:02:907
-1.82;-9.573;0.187;-1.889;-9.622;0.132;0.07;0.049;0.054;0.026;-0.078;0.012;-3.1;-4.1;30.3;50.08;3593;2018-04-16 22:41:02:917
-1.816;-9.572;0.141;-1.89;-9.622;0.141;0.074;0.05;0.0;0.033;-0.077;0.011;-3.1;-4.1;30.3;50.08;3603;2018-04-16 22:41:02:927
-1.827;-9.574;0.105;-1.89;-9.622;0.141;0.074;0.05;0.0;0.031;-0.067;0.007;-3.1;-4.1;30.3;50.08;3613;2018-04-16 22:41:02:937
-1.827;-9.574;0.105;-1.891;-9.621;0.15;0.061;0.047;-0.06;0.033;-0.062;0.007;-3.0;-4.1;30.4;50.08;3623;2018-04-16 22:41:02:947
-1.824;-9.577;0.071;-1.891;-9.621;0.15;0.061;0.047;-0.06;0.033;-0.062;0.007;-3.0;-4.1;30.4;50.08;3633;2018-04-16 22:41:02:957
-1.836;-9.594;0.049;-1.892;-9.621;0.156;0.059;0.023;-0.109;0.024;-0.043;0.006;-3.1;-4.2;30.5;50.08;3643;2018-04-16 22:41:02:967
-1.836;-9.594;0.049;-1.892;-9.621;0.156;0.059;0.023;-0.109;0.006;-0.023;0.006;-3.1;-4.2;30.5;50.08;3653;2018-04-16 22:41:02:977
-1.822;-9.579;0.043;-1.892;-9.621;0.157;0.07;0.042;-0.114;0.005;-0.013;0.005;-3.0;-4.1;30.5;50.08;3663;2018-04-16 22:41:02:987
-1.822;-9.579;0.043;-1.892;-9.621;0.157;0.07;0.042;-0.114;0.005;-0.013;0.005;-3.0;-4.1;30.5;50.08;3674;2018-04-16 22:41:02:998
-1.822;-9.544;0.057;-1.892;-9.621;0.154;0.071;0.075;-0.105;-0.006;0.0;0.0;-3.0;-4.1;30.6;50.08;3682;2018-04-16 22:41:03:006
-1.814;-9.543;0.061;-1.892;-9.621;0.154;0.071;0.075;-0.105;-0.013;0.021;0.001;-3.0;-4.1;30.5;50.08;3693;2018-04-16 22:41:03:017
-1.799;-9.554;0.104;-1.892;-9.621;0.149;0.084;0.065;-0.069;-0.021;0.038;0.001;-3.0;-4.1;30.5;50.08;3703;2018-04-16 22:41:03:027
-1.799;-9.554;0.104;-1.892;-9.621;0.149;0.084;0.065;-0.069;-0.028;0.054;-0.002;-3.1;-4.1;30.6;50.08;3712;2018-04-16 22:41:03:036
-1.809;-9.568;0.109;-1.891;-9.622;0.141;0.082;0.053;-0.033;-0.033;0.064;-0.005;-3.1;-4.1;30.6;50.08;3723;2018-04-16 22:41:03:047
-1.809;-9.568;0.109;-1.891;-9.622;0.141;0.082;0.053;-0.033;-0.033;0.064;-0.005;-3.1;-4.1;30.6;50.08;3733;2018-04-16 22:41:03:057
-1.833;-9.597;0.111;-1.889;-9.622;0.133;0.06;0.046;-0.037;-0.032;0.056;-0.005;-3.0;-4.1;30.7;50.08;3743;2018-04-16 22:41:03:067
-1.832;-9.57;0.111;-1.889;-9.622;0.133;0.06;0.046;-0.037;-0.028;0.039;-0.004;-3.0;-4.1;30.7;50.08;3753;2018-04-16 22:41:03:077
-1.848;-9.577;0.123;-1.888;-9.622;0.127;0.04;0.046;-0.003;-0.021;0.017;-0.005;-3.1;-4.1;30.6;50.08;3764;2018-04-16 22:41:03:088
-1.848;-9.552;0.165;-1.888;-9.622;0.127;0.04;0.046;-0.003;-0.022;-0.016;-0.007;-3.1;-4.1;30.6;50.08;3773;2018-04-16 22:41:03:097
-1.872;-9.552;0.165;-1.887;-9.623;0.124;-0.017;0.079;0.035;-0.022;-0.016;-0.007;-3.1;-4.0;30.6;50.08;3784;2018-04-16 22:41:03:108
-1.925;-9.535;0.17;-1.887;-9.623;0.124;-0.017;0.079;0.035;-0.026;-0.031;-0.004;-3.1;-4.0;30.6;50.08;3794;2018-04-16 22:41:03:118
-1.925;-9.535;0.17;-1.887;-9.623;0.121;-0.062;0.1;0.048;-0.026;-0.031;-0.004;-3.1;-4.1;30.6;50.08;3802;2018-04-16 22:41:03:126
-1.973;-9.521;0.146;-1.887;-9.623;0.121;-0.062;0.1;0.048;-0.012;-0.07;0.004;-3.1;-4.0;30.6;50.08;3813;2018-04-16 22:41:03:137
-1.933;-9.566;0.162;-1.888;-9.622;0.123;-0.058;0.057;0.046;0.001;-0.086;0.006;-3.1;-4.0;30.6;50.08;3822;2018-04-16 22:41:03:146
-1.933;-9.566;0.162;-1.888;-9.622;0.123;-0.058;0.057;0.046;0.006;-0.097;0.009;-3.1;-4.0;30.5;50.08;3833;2018-04-16 22:41:03:157
-1.907;-9.573;0.166;-1.89;-9.622;0.128;-0.017;0.049;0.038;0.006;-0.086;0.009;-3.1;-4.0;30.5;50.08;3843;2018-04-16 22:41:03:167
-1.89;-9.573;0.154;-1.89;-9.622;0.128;-0.017;0.049;0.038;-0.001;-0.068;0.004;-3.1;-4.1;30.6;50.08;3853;2018-04-16 22:41:03:177
-1.89;-9.573;0.154;-1.891;-9.622;0.13;0.002;0.043;0.029;-0.009;-0.051;0.001;-3.1;-4.1;30.6;50.08;3863;2018-04-16 22:41:03:187
-1.896;-9.552;0.147;-1.891;-9.622;0.13;0.002;0.043;0.029;-0.007;-0.038;-0.001;-3.0;-4.0;30.9;50.08;3873;2018-04-16 22:41:03:197
-1.905;-9.528;0.134;-1.891;-9.622;0.13;-0.018;0.088;0.004;-0.007;-0.038;-0.001;-3.0;-4.0;30.9;50.08;3883;2018-04-16 22:41:03:207
-1.905;-9.528;0.134;-1.891;-9.622;0.13;-0.018;0.088;0.004;0.0;-0.028;-0.002;-3.0;-4.0;30.9;48.84;3892;2018-04-16 22:41:03:216
-1.895;-9.544;0.121;-1.89;-9.622;0.132;-0.005;0.077;-0.011;0.006;-0.02;-0.001;-3.0;-4.0;30.9;48.84;3903;2018-04-16 22:41:03:227
-1.875;-9.535;0.123;-1.89;-9.622;0.132;-0.005;0.077;-0.011;0.002;0.004;0.0;-3.0;-4.0;30.9;48.84;3912;2018-04-16 22:41:03:236
-1.875;-9.535;0.123;-1.89;-9.622;0.132;0.018;0.091;-0.004;0.002;0.004;0.0;-3.0;-4.0;30.9;48.84;3923;2018-04-16 22:41:03:247
-1.867;-9.515;0.134;-1.89;-9.622;0.132;0.018;0.091;-0.004;-0.013;0.035;-0.002;-3.0;-4.0;31.0;48.84;3933;2018-04-16 22:41:03:257
-1.875;-9.533;0.13;-1.89;-9.622;0.127;0.015;0.089;0.004;-0.021;0.055;-0.002;-3.0;-4.0;31.0;48.84;3948;2018-04-16 22:41:03:272
-1.875;-9.533;0.13;-1.89;-9.622;0.127;0.015;0.089;0.004;-0.021;0.055;-0.002;-3.0;-4.0;31.0;48.84;3953;2018-04-16 22:41:03:277
-1.879;-9.576;0.129;-1.89;-9.622;0.119;0.012;0.051;0.003;-0.026;0.065;-0.001;-3.0;-4.0;31.1;48.84;3963;2018-04-16 22:41:03:287
-1.87;-9.57;0.126;-1.89;-9.622;0.119;0.012;0.051;0.003;-0.022;0.048;-0.001;-3.0;-4.0;31.0;48.84;3973;2018-04-16 22:41:03:297
-1.863;-9.564;0.117;-1.89;-9.622;0.114;0.027;0.058;0.003;-0.015;0.029;0.001;-3.0;-4.0;31.0;48.84;3983;2018-04-16 22:41:03:307
-1.839;-9.558;0.116;-1.89;-9.622;0.114;0.027;0.058;0.003;-0.013;0.0;0.001;-3.0;-4.0;31.0;48.84;3993;2018-04-16 22:41:03:317
-1.839;-9.558;0.116;-1.89;-9.622;0.111;0.034;0.065;0.006;-0.01;-0.021;0.004;-3.0;-4.0;31.0;48.84;4003;2018-04-16 22:41:03:327
-1.87;-9.573;0.122;-1.89;-9.622;0.111;0.034;0.065;0.006;-0.01;-0.021;0.004;-3.0;-4.0;31.0;48.84;4016;2018-04-16 22:41:03:340
-1.881;-9.574;0.128;-1.89;-9.622;0.111;0.01;0.048;0.017;-0.012;-0.049;0.004;-3.0;-4.0;30.9;48.84;4025;2018-04-16 22:41:03:349
-1.881;-9.574;0.128;-1.89;-9.622;0.111;0.01;0.048;0.017;-0.012;-0.049;0.004;-3.0;-4.0;30.9;48.84;4033;2018-04-16 22:41:03:357
-1.864;-9.549;0.144;-1.891;-9.622;0.113;0.025;0.058;0.046;0.0;-0.068;0.004;-3.0;-4.1;31.0;48.84;4042;2018-04-16 22:41:03:366
-1.841;-9.548;0.166;-1.891;-9.622;0.113;0.025;0.058;0.046;0.005;-0.067;0.007;-3.0;-4.1;31.0;48.84;4053;2018-04-16 22:41:03:377
-1.84;-9.561;0.157;-1.892;-9.622;0.116;0.048;0.062;0.05;0.005;-0.054;0.006;-3.0;-4.1;31.0;48.84;4062;2018-04-16 22:41:03:386
-1.84;-9.561;0.157;-1.892;-9.622;0.116;0.048;0.062;0.05;0.007;-0.031;0.005;-3.0;-4.1;31.0;48.84;4073;2018-04-16 22:41:03:397
-1.829;-9.55;0.152;-1.892;-9.622;0.119;0.063;0.071;0.033;0.017;-0.015;0.001;-3.0;-4.1;31.0;48.84;4083;2018-04-16 22:41:03:407
-1.842;-9.566;0.11;-1.892;-9.622;0.119;0.063;0.071;0.033;0.017;-0.015;0.001;-3.0;-4.1;31.0;48.84;4093;2018-04-16 22:41:03:417
-1.842;-9.566;0.11;-1.891;-9.622;0.123;0.071;0.071;-0.024;0.023;0.004;-0.001;-3.0;-4.0;31.0;48.84;4103;2018-04-16 22:41:03:427
-1.78;-9.544;0.084;-1.891;-9.622;0.123;0.071;0.071;-0.024;0.017;0.021;-0.002;-3.0;-4.0;31.0;48.84;4113;2018-04-16 22:41:03:437
-1.782;-9.527;0.06;-1.889;-9.622;0.125;0.115;0.108;-0.066;0.007;0.042;-0.005;-2.9;-4.0;31.1;48.84;4123;2018-04-16 22:41:03:447
-1.782;-9.527;0.06;-1.889;-9.622;0.125;0.115;0.108;-0.066;0.007;0.042;-0.005;-2.9;-4.0;31.1;48.84;4133;2018-04-16 22:41:03:457
-1.804;-9.538;0.074;-1.888;-9.622;0.121;0.084;0.084;-0.047;-0.009;0.061;-0.009;-2.9;-4.0;31.1;48.84;4143;2018-04-16 22:41:03:467
-1.857;-9.567;0.093;-1.888;-9.622;0.121;0.084;0.084;-0.047;-0.016;0.07;-0.009;-2.9;-4.0;31.1;48.84;4153;2018-04-16 22:41:03:477
-1.857;-9.567;0.093;-1.886;-9.623;0.115;0.031;0.038;-0.024;-0.02;0.067;-0.009;-2.9;-3.9;31.0;48.84;4163;2018-04-16 22:41:03:487
-1.879;-9.604;0.092;-1.886;-9.623;0.115;0.031;0.038;-0.024;-0.023;0.059;-0.009;-2.9;-3.9;31.0;48.84;4173;2018-04-16 22:41:03:497
-1.889;-9.601;0.128;-1.885;-9.623;0.109;-0.014;0.022;0.024;-0.02;0.048;-0.006;-2.9;-4.0;31.0;48.84;4183;2018-04-16 22:41:03:507
-1.889;-9.601;0.128;-1.885;-9.623;0.109;-0.014;0.022;0.024;-0.016;0.039;-0.004;-2.9;-4.0;31.0;48.84;4193;2018-04-16 22:41:03:517
-1.89;-9.566;0.145;-1.884;-9.623;0.104;-0.006;0.057;0.04;-0.017;0.026;0.0;-2.9;-4.0;31.1;48.84;4203;2018-04-16 22:41:03:527
-1.872;-9.538;0.162;-1.884;-9.623;0.104;-0.006;0.057;0.04;-0.012;0.013;0.002;-2.9;-4.0;31.1;49.19;4213;2018-04-16 22:41:03:537
-1.872;-9.538;0.162;-1.884;-9.623;0.102;0.017;0.094;0.066;-0.01;-0.004;0.001;-2.9;-4.0;30.9;49.19;4223;2018-04-16 22:41:03:547
-1.869;-9.535;0.157;-1.884;-9.623;0.102;0.017;0.094;0.066;0.0;-0.017;0.005;-2.9;-4.0;30.9;49.19;4233;2018-04-16 22:41:03:557
-1.859;-9.546;0.144;-1.885;-9.623;0.103;0.028;0.074;0.052;0.01;-0.04;0.005;-2.9;-3.9;30.8;49.19;4243;2018-04-16 22:41:03:567
-1.859;-9.546;0.144;-1.885;-9.623;0.103;0.028;0.074;0.052;0.018;-0.055;0.007;-2.9;-3.9;30.8;49.19;4253;2018-04-16 22:41:03:577
-1.823;-9.556;0.109;-1.886;-9.623;0.108;0.062;0.067;0.001;0.022;-0.064;0.005;-2.9;-3.9;30.7;49.19;4263;2018-04-16 22:41:03:587
-1.793;-9.552;0.093;-1.886;-9.623;0.108;0.062;0.067;0.001;0.022;-0.07;0.005;-2.9;-3.9;30.7;49.19;4273;2018-04-16 22:41:03:597
-1.793;-9.552;0.093;-1.886;-9.623;0.114;0.096;0.068;-0.034;0.016;-0.068;0.002;-2.9;-4.0;30.7;49.19;4283;2018-04-16 22:41:03:607
-1.799;-9.56;0.078;-1.886;-9.623;0.114;0.096;0.068;-0.034;0.006;-0.065;0.0;-2.9;-4.0;30.7;49.19;4293;2018-04-16 22:41:03:617
-1.826;-9.566;0.085;-1.885;-9.623;0.118;0.083;0.068;-0.05;0.006;-0.064;0.0;-2.9;-4.0;30.7;49.19;4303;2018-04-16 22:41:03:627
-1.826;-9.566;0.085;-1.885;-9.623;0.118;0.083;0.068;-0.05;0.005;-0.051;-0.002;-2.9;-4.0;30.7;49.19;4312;2018-04-16 22:41:03:636
-1.847;-9.585;0.119;-1.884;-9.623;0.121;0.037;0.038;-0.002;0.001;-0.031;-0.002;-2.9;-3.9;30.8;49.19;4323;2018-04-16 22:41:03:647
-1.879;-9.576;0.152;-1.884;-9.623;0.121;0.037;0.038;-0.002;-0.001;-0.006;-0.005;-2.9;-3.9;30.8;49.19;4333;2018-04-16 22:41:03:657
-1.879;-9.576;0.152;-1.883;-9.623;0.121;0.003;0.031;0.028;0.0;0.018;-0.004;-2.9;-3.9;30.7;49.19;4343;2018-04-16 22:41:03:667
-1.882;-9.578;0.146;-1.883;-9.623;0.121;0.003;0.031;0.028;0.0;0.018;-0.004;-2.9;-3.9;30.7;49.19;4353;2018-04-16 22:41:03:677
-1.861;-9.582;0.138;-1.883;-9.623;0.121;0.011;0.044;0.023;0.004;0.048;-0.005;-2.9;-3.9;30.7;49.19;4363;2018-04-16 22:41:03:687
-1.861;-9.582;0.138;-1.883;-9.623;0.121;0.011;0.044;0.023;0.006;0.068;-0.009;-2.9;-3.9;30.7;49.19;4373;2018-04-16 22:41:03:697
-1.865;-9.567;0.114;-1.881;-9.624;0.119;0.016;0.057;-0.005;0.006;0.068;-0.009;-2.9;-3.9;30.7;49.19;4383;2018-04-16 22:41:03:707
-1.865;-9.567;0.114;-1.881;-9.624;0.119;0.016;0.057;-0.005;0.002;0.082;-0.007;-2.9;-3.9;30.6;49.19;4393;2018-04-16 22:41:03:717
-1.834;-9.555;0.085;-1.879;-9.624;0.115;0.045;0.069;-0.03;-0.004;0.086;-0.007;-2.9;-3.9;30.6;49.19;4403;2018-04-16 22:41:03:727
-1.834;-9.555;0.085;-1.879;-9.624;0.115;0.045;0.069;-0.03;-0.011;0.072;-0.007;-2.9;-3.9;30.6;49.19;4413;2018-04-16 22:41:03:737
-1.832;-9.565;0.066;-1.878;-9.625;0.11;0.046;0.06;-0.044;-0.013;0.053;-0.007;-2.9;-4.0;30.6;49.19;4423;2018-04-16 22:41:03:747
-1.832;-9.565;0.066;-1.878;-9.625;0.11;0.046;0.06;-0.044;-0.013;0.053;-0.007;-2.9;-4.0;30.6;49.19;4433;2018-04-16 22:41:03:757
-1.799;-9.566;0.08;-1.876;-9.625;0.105;0.077;0.059;-0.025;-0.018;0.021;-0.005;-2.9;-4.0;30.5;49.19;4442;2018-04-16 22:41:03:766
-1.814;-9.579;0.133;-1.876;-9.625;0.105;0.077;0.059;-0.025;-0.026;0.001;-0.007;-2.9;-4.0;30.5;49.19;4453;2018-04-16 22:41:03:777
-1.814;-9.579;0.133;-1.874;-9.625;0.1;0.052;0.059;0.046;-0.031;-0.01;-0.006;-2.9;-4.0;30.5;49.19;4463;2018-04-16 22:41:03:787
-1.833;-9.562;0.181;-1.874;-9.625;0.1;0.052;0.059;0.046;-0.033;-0.016;-0.006;-2.9;-4.0;30.5;49.19;4473;2018-04-16 22:41:03:797
-1.841;-9.564;0.208;-1.872;-9.626;0.096;0.031;0.062;0.113;-0.023;-0.02;-0.009;-2.8;-4.0;30.5;49.19;4483;2018-04-16 22:41:03:807
-1.841;-9.564;0.208;-1.872;-9.626;0.096;0.031;0.062;0.113;-0.023;-0.02;-0.009;-2.8;-4.0;30.5;49.19;4493;2018-04-16 22:41:03:817
-1.851;-9.535;0.225;-1.87;-9.626;0.095;0.02;0.091;0.13;-0.01;-0.027;-0.01;-2.9;-4.1;30.5;49.19;4503;2018-04-16 22:41:03:827
-1.851;-9.535;0.225;-1.87;-9.626;0.095;0.02;0.091;0.13;-0.01;-0.027;-0.01;-2.9;-4.1;30.5;49.19;4513;2018-04-16 22:41:03:837
-1.875;-9.553;0.227;-1.869;-9.626;0.098;-0.006;0.073;0.129;0.007;-0.024;-0.006;-2.8;-4.1;30.6;49.19;4523;2018-04-16 22:41:03:847
-1.885;-9.552;0.192;-1.869;-9.626;0.098;-0.006;0.073;0.129;0.015;-0.02;-0.007;-2.8;-4.1;30.6;49.33;4533;2018-04-16 22:41:03:857
-1.885;-9.552;0.192;-1.868;-9.626;0.102;-0.01;0.068;0.082;0.013;-0.013;-0.005;-2.7;-4.0;30.7;49.33;4543;2018-04-16 22:41:03:867
-1.853;-9.558;0.14;-1.868;-9.626;0.102;-0.01;0.068;0.082;0.018;-0.007;-0.004;-2.7;-4.0;30.7;49.33;4552;2018-04-16 22:41:03:876
-1.817;-9.543;0.091;-1.867;-9.627;0.106;0.031;0.079;0.014;0.018;-0.009;-0.004;-2.7;-4.1;30.7;49.33;4563;2018-04-16 22:41:03:887
-1.817;-9.543;0.091;-1.867;-9.627;0.106;0.031;0.079;0.014;0.018;-0.009;-0.004;-2.7;-4.1;30.7;49.33;4572;2018-04-16 22:41:03:896
-1.79;-9.554;0.085;-1.866;-9.627;0.109;0.076;0.073;-0.024;0.016;-0.012;-0.005;-2.7;-4.1;30.7;49.33;4583;2018-04-16 22:41:03:907
-1.781;-9.573;0.115;-1.866;-9.627;0.109;0.076;0.073;-0.024;0.002;-0.012;-0.006;-2.7;-4.1;30.7;49.33;4592;2018-04-16 22:41:03:916
-1.781;-9.573;0.115;-1.864;-9.627;0.111;0.077;0.046;0.007;-0.005;-0.005;-0.01;-2.8;-4.1;30.8;49.33;4602;2018-04-16 22:41:03:926
-1.784;-9.58;0.132;-1.864;-9.627;0.111;0.077;0.046;0.007;-0.005;-0.005;-0.01;-2.8;-4.1;30.8;49.33;4613;2018-04-16 22:41:03:937
-1.781;-9.598;0.145;-1.862;-9.628;0.109;0.078;0.034;0.049;-0.012;0.01;-0.011;-2.8;-4.1;30.8;49.33;4623;2018-04-16 22:41:03:947
-1.781;-9.598;0.145;-1.862;-9.628;0.109;0.078;0.034;0.049;-0.013;0.021;-0.013;-2.8;-4.1;30.8;49.33;4633;2018-04-16 22:41:03:957
-1.793;-9.603;0.171;-1.859;-9.628;0.106;0.065;0.025;0.065;-0.01;0.026;-0.016;-2.7;-4.1;30.8;49.33;4643;2018-04-16 22:41:03:967
-1.816;-9.567;0.177;-1.859;-9.628;0.106;0.065;0.025;0.065;-0.002;0.029;-0.017;-2.7;-4.1;30.8;49.33;4652;2018-04-16 22:41:03:976
-1.84;-9.57;0.162;-1.855;-9.629;0.105;0.039;0.062;0.072;-0.004;0.034;-0.017;-2.8;-4.1;30.8;49.33;4663;2018-04-16 22:41:03:987
-1.84;-9.57;0.162;-1.855;-9.629;0.105;0.039;0.062;0.072;0.0;0.042;-0.017;-2.8;-4.1;30.8;49.33;4672;2018-04-16 22:41:03:996
-1.841;-9.554;0.142;-1.852;-9.63;0.103;0.011;0.076;0.039;-0.001;0.038;-0.016;-2.8;-4.1;30.8;49.33;4683;2018-04-16 22:41:04:007
-1.844;-9.583;0.133;-1.852;-9.63;0.103;0.011;0.076;0.039;-0.001;0.038;-0.016;-2.8;-4.1;30.8;49.33;4693;2018-04-16 22:41:04:017
-1.844;-9.583;0.133;-1.849;-9.63;0.103;0.006;0.046;0.028;-0.001;0.022;-0.011;-2.8;-4.1;30.8;49.33;4703;2018-04-16 22:41:04:027
-1.841;-9.57;0.115;-1.849;-9.63;0.103;0.006;0.046;0.028;-0.005;0.012;-0.009;-2.8;-4.1;30.8;49.33;4714;2018-04-16 22:41:04:038
-1.809;-9.561;0.11;-1.847;-9.63;0.101;0.039;0.069;0.009;-0.013;-0.005;-0.007;-2.8;-4.0;30.9;49.33;4723;2018-04-16 22:41:04:047
-1.796;-9.568;0.142;-1.847;-9.63;0.101;0.039;0.069;0.009;-0.013;-0.005;-0.007;-2.8;-4.0;30.9;49.33;4733;2018-04-16 22:41:04:057
-1.796;-9.568;0.142;-1.846;-9.631;0.099;0.049;0.061;0.063;-0.021;-0.017;-0.006;-2.9;-4.0;30.9;49.33;4743;2018-04-16 22:41:04:067
-1.782;-9.542;0.154;-1.846;-9.631;0.099;0.049;0.061;0.063;-0.018;-0.031;-0.006;-2.9;-4.0;30.9;49.33;4753;2018-04-16 22:41:04:077
-1.782;-9.542;0.154;-1.844;-9.631;0.097;0.06;0.088;0.079;-0.018;-0.031;-0.006;-2.9;-4.0;30.9;49.33;4763;2018-04-16 22:41:04:087
-1.794;-9.537;0.183;-1.844;-9.631;0.097;0.06;0.088;0.079;-0.015;-0.033;-0.004;-2.9;-4.0;30.9;49.33;4773;2018-04-16 22:41:04:097
-1.8;-9.562;0.214;-1.843;-9.631;0.097;0.042;0.069;0.117;-0.009;-0.028;-0.005;-3.0;-4.0;30.9;49.33;4783;2018-04-16 22:41:04:107
-1.792;-9.577;0.187;-1.843;-9.631;0.097;0.042;0.069;0.117;0.004;-0.02;-0.004;-3.0;-4.0;30.9;49.33;4794;2018-04-16 22:41:04:118
-1.792;-9.577;0.187;-1.842;-9.632;0.099;0.041;0.061;0.084;0.009;-0.015;-0.005;-3.0;-3.9;30.9;49.33;4804;2018-04-16 22:41:04:128
-1.797;-9.582;0.172;-1.842;-9.632;0.099;0.041;0.061;0.084;0.009;-0.015;-0.005;-3.0;-3.9;30.9;49.33;4813;2018-04-16 22:41:04:137
-1.79;-9.579;0.144;-1.841;-9.632;0.103;0.051;0.053;0.041;0.016;-0.011;-0.002;-3.0;-3.9;30.9;49.33;4823;2018-04-16 22:41:04:147
-1.79;-9.579;0.144;-1.841;-9.632;0.103;0.051;0.053;0.041;0.016;-0.011;-0.002;-3.0;-4.0;30.9;49.33;4834;2018-04-16 22:41:04:158
-1.791;-9.565;0.101;-1.839;-9.632;0.107;0.048;0.059;-0.012;0.02;-0.006;-0.006;-3.0;-4.0;30.9;49.33;4843;2018-04-16 22:41:04:167
-1.774;-9.577;0.085;-1.839;-9.632;0.107;0.048;0.059;-0.012;0.013;-0.002;-0.004;-3.0;-4.0;30.9;49.33;4853;2018-04-16 22:41:04:177
-1.774;-9.577;0.085;-1.838;-9.632;0.108;0.064;0.064;-0.032;0.009;0.004;-0.004;-3.0;-4.0;31.0;49.33;4863;2018-04-16 22:41:04:187
-1.763;-9.554;0.083;-1.838;-9.632;0.108;0.064;0.064;-0.032;-0.006;0.012;-0.004;-3.0;-4.0;31.0;49.39;4873;2018-04-16 22:41:04:197
-1.763;-9.592;0.104;-1.836;-9.633;0.107;0.062;0.063;-0.018;-0.01;0.015;-0.005;-3.0;-4.0;31.2;49.39;4883;2018-04-16 22:41:04:207
-1.763;-9.592;0.104;-1.836;-9.633;0.107;0.062;0.063;-0.018;-0.02;0.02;-0.007;-3.0;-4.0;31.2;49.39;4893;2018-04-16 22:41:04:217
-1.8;-9.594;0.123;-1.835;-9.633;0.103;0.034;0.039;0.02;-0.02;0.024;-0.005;-2.9;-3.9;31.0;49.39;4903;2018-04-16 22:41:04:227
-1.82;-9.578;0.152;-1.835;-9.633;0.103;0.034;0.039;0.02;-0.021;0.027;-0.004;-2.9;-3.9;31.0;49.39;4913;2018-04-16 22:41:04:237
-1.82;-9.578;0.152;-1.834;-9.633;0.099;0.017;0.068;0.053;-0.021;0.027;-0.004;-2.9;-3.9;31.0;49.39;4923;2018-04-16 22:41:04:247
-1.818;-9.577;0.165;-1.834;-9.633;0.099;0.017;0.068;0.053;-0.016;0.027;-0.004;-2.9;-3.9;31.0;49.39;4933;2018-04-16 22:41:04:257
-1.811;-9.578;0.142;-1.833;-9.633;0.095;0.022;0.055;0.047;-0.016;0.022;-0.002;-2.9;-3.9;31.0;49.39;4943;2018-04-16 22:41:04:267
-1.811;-9.578;0.142;-1.833;-9.633;0.095;0.022;0.055;0.047;-0.01;0.013;-0.001;-2.9;-3.9;31.0;49.39;4953;2018-04-16 22:41:04:277
-1.771;-9.592;0.164;-1.832;-9.633;0.094;0.062;0.041;0.07;-0.01;0.013;-0.001;-2.9;-3.9;31.1;49.39;4963;2018-04-16 22:41:04:287
-1.744;-9.577;0.138;-1.832;-9.633;0.094;0.062;0.041;0.07;-0.006;0.006;-0.004;-2.9;-3.9;31.1;49.39;4973;2018-04-16 22:41:04:297
-1.744;-9.577;0.138;-1.83;-9.634;0.093;0.085;0.049;0.054;-0.007;-0.005;-0.007;-2.9;-3.9;31.1;49.39;4983;2018-04-16 22:41:04:307
-1.741;-9.592;0.151;-1.83;-9.634;0.093;0.085;0.049;0.054;-0.006;-0.018;-0.011;-2.9;-4.0;31.1;49.39;4993;2018-04-16 22:41:04:317
-1.742;-9.582;0.129;-1.827;-9.634;0.094;0.086;0.053;0.036;-0.006;-0.018;-0.011;-2.9;-4.0;31.1;49.39;5003;2018-04-16 22:41:04:327
-1.782;-9.579;0.129;-1.827;-9.634;0.094;0.086;0.053;0.036;-0.004;-0.033;-0.009;-2.9;-3.9;31.0;49.39;5014;2018-04-16 22:41:04:338
-1.782;-9.579;0.129;-1.825;-9.635;0.094;0.038;0.069;0.037;-0.007;-0.039;-0.011;-2.9;-3.9;31.0;49.39;5023;2018-04-16 22:41:04:347
-1.817;-9.574;0.124;-1.825;-9.635;0.094;0.038;0.069;0.037;-0.009;-0.042;-0.007;-2.9;-4.0;30.9;49.39;5035;2018-04-16 22:41:04:359
-1.817;-9.574;0.124;-1.823;-9.635;0.095;0.005;0.055;0.047;-0.009;-0.042;-0.007;-2.9;-4.0;30.9;49.39;5043;2018-04-16 22:41:04:367
-1.824;-9.577;0.153;-1.823;-9.635;0.095;0.005;0.055;0.047;-0.007;-0.042;-0.007;-2.9;-4.0;30.7;49.39;5053;2018-04-16 22:41:04:377
-1.811;-9.561;0.15;-1.822;-9.635;0.095;-0.001;0.065;0.06;-0.006;-0.04;-0.004;-2.9;-4.0;30.7;49.39;5063;2018-04-16 22:41:04:387
-1.811;-9.561;0.15;-1.822;-9.635;0.095;-0.001;0.065;0.06;-0.006;-0.029;-0.002;-2.8;-4.0;30.8;49.39;5073;2018-04-16 22:41:04:397
-1.814;-9.572;0.157;-1.822;-9.635;0.095;0.008;0.063;0.062;-0.009;-0.02;-0.004;-2.8;-4.0;30.8;49.39;5082;2018-04-16 22:41:04:406
-1.782;-9.543;0.171;-1.822;-9.635;0.095;0.008;0.063;0.062;-0.016;0.009;-0.001;-2.8;-4.0;30.7;49.39;5093;2018-04-16 22:41:04:417
-1.775;-9.547;0.177;-1.821;-9.636;0.093;0.038;0.091;0.087;-0.02;0.026;-0.002;-2.8;-4.0;30.7;49.39;5104;2018-04-16 22:41:04:428
-1.775;-9.547;0.177;-1.821;-9.636;0.093;0.038;0.091;0.087;-0.02;0.026;-0.002;-2.8;-4.0;30.7;49.39;5113;2018-04-16 22:41:04:437
-1.798;-9.555;0.187;-1.821;-9.636;0.09;0.023;0.088;0.103;-0.015;0.035;-0.001;-2.9;-4.0;30.6;49.39;5123;2018-04-16 22:41:04:447
-1.806;-9.55;0.196;-1.821;-9.636;0.09;0.023;0.088;0.103;-0.006;0.042;-0.002;-2.9;-4.0;30.6;49.39;5133;2018-04-16 22:41:04:457
-1.806;-9.55;0.196;-1.82;-9.636;0.089;0.013;0.073;0.088;0.0;0.042;0.0;-2.9;-4.0;30.6;49.39;5143;2018-04-16 22:41:04:467
-1.817;-9.565;0.176;-1.82;-9.636;0.089;0.013;0.073;0.088;0.005;0.029;0.002;-2.9;-4.0;30.5;49.39;5153;2018-04-16 22:41:04:477
-1.814;-9.546;0.141;-1.821;-9.636;0.089;0.007;0.09;0.052;0.005;0.015;0.002;-2.9;-4.0;30.5;49.39;5163;2018-04-16 22:41:04:487
-1.798;-9.573;0.142;-1.821;-9.636;0.089;0.007;0.09;0.052;0.004;0.007;0.004;-2.9;-4.0;30.5;49.39;5173;2018-04-16 22:41:04:497
-1.798;-9.573;0.142;-1.822;-9.635;0.09;0.013;0.063;0.057;0.004;0.007;0.004;-3.0;-4.0;30.4;49.39;5182;2018-04-16 22:41:04:506
-1.808;-9.588;0.13;-1.822;-9.635;0.09;0.013;0.063;0.057;0.004;-0.01;0.005;-3.0;-4.0;30.4;49.64;5193;2018-04-16 22:41:04:517
-1.804;-9.586;0.14;-1.823;-9.635;0.092;0.019;0.049;0.048;0.009;-0.023;0.005;-3.0;-4.0;30.4;49.64;5203;2018-04-16 22:41:04:527
-1.779;-9.591;0.124;-1.823;-9.635;0.092;0.019;0.049;0.048;0.016;-0.045;0.006;-3.0;-4.0;30.4;49.64;5212;2018-04-16 22:41:04:536
-1.779;-9.591;0.124;-1.823;-9.635;0.097;0.056;0.043;0.026;0.017;-0.048;0.004;-3.0;-4.1;30.5;49.64;5223;2018-04-16 22:41:04:547
-1.738;-9.564;0.103;-1.823;-9.635;0.097;0.056;0.043;0.026;0.02;-0.05;0.002;-3.0;-4.1;30.5;49.64;5233;2018-04-16 22:41:04:557
-1.731;-9.583;0.096;-1.823;-9.635;0.102;0.088;0.073;0.001;0.016;-0.043;0.0;-3.0;-4.1;30.5;49.64;5243;2018-04-16 22:41:04:567
-1.731;-9.583;0.096;-1.823;-9.635;0.102;0.088;0.073;0.001;0.006;-0.026;-0.001;-3.0;-4.1;30.5;49.64;5253;2018-04-16 22:41:04:577
-1.737;-9.595;0.108;-1.822;-9.635;0.104;0.085;0.041;0.004;0.006;-0.026;-0.001;-3.0;-4.1;30.5;49.64;5263;2018-04-16 22:41:04:587
-1.771;-9.588;0.097;-1.822;-9.635;0.104;0.085;0.041;0.004;-0.006;-0.002;0.0;-2.9;-4.2;30.5;49.64;5273;2018-04-16 22:41:04:597
-1.771;-9.588;0.097;-1.821;-9.636;0.102;0.035;0.048;-0.017;-0.009;0.007;-0.004;-2.9;-4.2;30.5;49.64;5286;2018-04-16 22:41:04:610
-1.833;-9.597;0.095;-1.821;-9.636;0.102;0.035;0.048;-0.017;-0.009;0.012;-0.001;-2.9;-4.2;30.5;49.64;5293;2018-04-16 22:41:04:617
-1.852;-9.586;0.083;-1.821;-9.636;0.1;-0.031;0.043;-0.013;-0.007;0.011;0.002;-2.9;-4.2;30.5;49.64;5303;2018-04-16 22:41:04:627
-1.852;-9.586;0.083;-1.821;-9.636;0.1;-0.031;0.043;-0.013;-0.009;0.01;0.006;-2.9;-4.3;30.5;49.64;5313;2018-04-16 22:41:04:637
-1.82;-9.552;0.108;-1.822;-9.635;0.098;0.003;0.084;0.01;-0.009;0.01;0.006;-2.9;-4.3;30.5;49.64;5323;2018-04-16 22:41:04:647
-1.765;-9.538;0.141;-1.822;-9.635;0.098;0.003;0.084;0.01;-0.017;0.017;0.011;-2.9;-4.2;30.6;49.64;5333;2018-04-16 22:41:04:657
-1.765;-9.538;0.141;-1.824;-9.635;0.094;0.058;0.1;0.05;-0.023;0.026;0.009;-2.9;-4.2;30.6;49.64;5342;2018-04-16 22:41:04:666
-1.745;-9.554;0.17;-1.824;-9.635;0.094;0.058;0.1;0.05;-0.026;0.035;0.006;-2.8;-4.2;30.7;49.64;5353;2018-04-16 22:41:04:677
-1.748;-9.564;0.163;-1.824;-9.635;0.088;0.077;0.071;0.074;-0.024;0.037;0.005;-2.8;-4.2;30.7;49.64;5363;2018-04-16 22:41:04:687
-1.751;-9.577;0.209;-1.824;-9.635;0.088;0.077;0.071;0.074;-0.013;0.033;0.006;-2.8;-4.2;30.7;49.64;5373;2018-04-16 22:41:04:697
-1.751;-9.577;0.209;-1.824;-9.635;0.085;0.072;0.067;0.11;-0.013;0.033;0.006;-2.9;-4.2;30.7;49.64;5383;2018-04-16 22:41:04:707
-1.755;-9.58;0.186;-1.824;-9.635;0.085;0.072;0.067;0.11;-0.006;0.032;0.001;-2.9;-4.2;30.7;49.64;5393;2018-04-16 22:41:04:717
-1.754;-9.582;0.165;-1.824;-9.635;0.085;0.07;0.054;0.081;0.0;0.027;0.0;-2.9;-4.2;30.7;49.64;5403;2018-04-16 22:41:04:727
-1.811;-9.583;0.136;-1.824;-9.635;0.085;0.07;0.054;0.081;0.013;-0.006;0.0;-2.9;-4.2;30.7;49.64;5412;2018-04-16 22:41:04:736
-1.811;-9.583;0.136;-1.824;-9.635;0.087;0.002;0.057;0.055;0.016;-0.02;-0.001;-2.8;-4.2;30.8;49.64;5423;2018-04-16 22:41:04:747
-1.835;-9.57;0.157;-1.824;-9.635;0.087;0.002;0.057;0.055;0.016;-0.02;-0.001;-2.8;-4.2;30.8;49.64;5433;2018-04-16 22:41:04:757
-1.816;-9.542;0.135;-1.824;-9.635;0.092;0.008;0.093;0.043;0.018;-0.031;0.002;-2.8;-4.2;30.9;49.64;5443;2018-04-16 22:41:04:767
-1.816;-9.542;0.135;-1.824;-9.635;0.092;0.008;0.093;0.043;0.01;-0.033;0.004;-2.8;-4.2;30.9;49.64;5454;2018-04-16 22:41:04:778
-1.781;-9.562;0.138;-1.824;-9.635;0.092;0.008;0.093;0.043;0.01;-0.033;0.004;-2.8;-4.2;30.8;49.64;5463;2018-04-16 22:41:04:787
-1.755;-9.59;0.134;-1.824;-9.635;0.095;0.047;0.057;0.028;0.007;-0.033;0.004;-2.8;-4.2;30.8;49.64;5473;2018-04-16 22:41:04:797
-1.755;-9.59;0.134;-1.823;-9.635;0.098;0.084;0.052;0.063;0.009;-0.026;0.0;-2.8;-4.1;30.9;49.64;5483;2018-04-16 22:41:04:807
-1.743;-9.577;0.154;-1.823;-9.635;0.098;0.084;0.052;0.063;0.009;-0.009;0.0;-2.8;-4.1;31.0;49.64;5493;2018-04-16 22:41:04:817
-1.759;-9.585;0.162;-1.823;-9.635;0.099;0.064;0.05;0.062;0.002;0.007;-0.001;-2.8;-4.1;31.0;49.64;5503;2018-04-16 22:41:04:827
-1.808;-9.573;0.119;-1.823;-9.635;0.099;0.064;0.05;0.062;0.001;0.024;-0.006;-2.9;-4.1;31.0;49.74;5512;2018-04-16 22:41:04:836
-1.808;-9.573;0.119;-1.821;-9.636;0.099;0.003;0.05;0.018;0.001;0.024;-0.006;-2.9;-4.1;31.0;49.74;5523;2018-04-16 22:41:04:847
-1.841;-9.565;0.119;-1.821;-9.636;0.099;0.003;0.05;0.018;0.0;0.027;-0.005;-2.9;-4.1;30.9;49.74;5533;2018-04-16 22:41:04:857
-1.839;-9.549;0.111;-1.821;-9.636;0.098;-0.023;0.079;0.009;0.001;0.021;-0.004;-2.9;-4.1;30.9;49.74;5543;2018-04-16 22:41:04:867
-1.839;-9.549;0.111;-1.821;-9.636;0.098;-0.023;0.079;0.009;0.001;0.021;-0.004;-2.9;-4.1;30.9;49.74;5553;2018-04-16 22:41:04:877
-1.836;-9.571;0.122;-1.821;-9.636;0.097;-0.012;0.058;0.046;-0.007;0.013;0.0;-2.9;-4.1;30.9;49.74;5563;2018-04-16 22:41:04:887
-1.84;-9.591;0.164;-1.821;-9.636;0.097;-0.012;0.058;0.046;-0.017;0.007;0.001;-2.9;-4.0;30.8;49.74;5573;2018-04-16 22:41:04:897
-1.84;-9.591;0.164;-1.821;-9.636;0.093;-0.028;0.049;0.094;-0.022;0.01;0.002;-2.9;-4.0;30.8;49.74;5583;2018-04-16 22:41:04:907
-1.848;-9.597;0.201;-1.821;-9.636;0.093;-0.028;0.049;0.094;-0.018;0.015;0.002;-2.9;-4.0;30.8;49.74;5593;2018-04-16 22:41:04:917
-1.848;-9.597;0.201;-1.822;-9.635;0.09;-0.011;0.093;0.126;-0.018;0.015;0.002;-2.9;-4.0;30.8;49.74;5603;2018-04-16 22:41:04:927
-1.846;-9.523;0.22;-1.822;-9.635;0.09;-0.011;0.093;0.126;-0.011;0.015;-0.005;-2.9;-3.9;30.8;49.74;5614;2018-04-16 22:41:04:938
-1.865;-9.511;0.218;-1.821;-9.636;0.09;-0.044;0.125;0.128;-0.004;0.012;-0.009;-2.9;-3.9;30.8;49.74;5623;2018-04-16 22:41:04:947
-1.896;-9.584;0.172;-1.821;-9.636;0.09;-0.044;0.125;0.128;0.005;0.01;-0.013;-2.9;-3.9;30.8;49.74;5636;2018-04-16 22:41:04:960
-1.896;-9.584;0.172;-1.82;-9.636;0.091;-0.071;0.048;0.068;0.005;0.01;-0.013;-2.9;-4.0;30.9;49.74;5643;2018-04-16 22:41:04:967
-1.891;-9.614;0.078;-1.82;-9.636;0.091;-0.071;0.048;0.068;0.012;-0.012;-0.012;-2.9;-4.0;30.9;49.74;5653;2018-04-16 22:41:04:977
-1.891;-9.614;0.078;-1.818;-9.636;0.095;-0.062;0.022;-0.048;0.017;-0.037;-0.013;-3.0;-3.9;30.8;49.74;5663;2018-04-16 22:41:04:987
-1.842;-9.629;0.043;-1.818;-9.636;0.095;-0.062;0.022;-0.048;0.018;-0.057;-0.013;-3.0;-3.9;30.8;49.74;5673;2018-04-16 22:41:04:997
-1.839;-9.612;0.043;-1.815;-9.637;0.099;-0.024;0.025;-0.056;0.01;-0.075;-0.017;-3.0;-3.9;30.9;49.74;5684;2018-04-16 22:41:05:008
-1.839;-9.612;0.043;-1.815;-9.637;0.099;-0.024;0.025;-0.056;-0.005;-0.082;-0.017;-3.0;-3.9;30.9;49.74;5693;2018-04-16 22:41:05:017
-1.895;-9.565;0.055;-1.812;-9.637;0.098;-0.083;0.072;-0.043;-0.005;-0.082;-0.017;-3.0;-3.9;30.9;49.74;5703;2018-04-16 22:41:05:027
-1.9;-9.509;0.095;-1.812;-9.637;0.098;-0.083;0.072;-0.043;-0.049;-0.055;-0.02;-3.0;-3.9;30.9;49.74;5713;2018-04-16 22:41:05:037
-1.9;-9.509;0.095;-1.81;-9.638;0.089;-0.081;0.14;0.005;-0.057;-0.035;-0.015;-2.9;-3.9;30.9;49.74;5723;2018-04-16 22:41:05:047
-1.833;-9.507;0.129;-1.81;-9.638;0.089;-0.081;0.14;0.005;-0.04;-0.013;-0.01;-2.9;-3.9;30.9;49.74;5733;2018-04-16 22:41:05:057
-1.765;-9.55;0.154;-1.808;-9.638;0.082;0.024;0.082;0.072;-0.031;0.006;-0.011;-2.9;-3.9;30.9;49.74;5743;2018-04-16 22:41:05:067
-1.765;-9.55;0.154;-1.808;-9.638;0.082;0.024;0.082;0.072;-0.021;0.034;-0.013;-2.9;-3.9;30.9;49.74;5752;2018-04-16 22:41:05:076
-1.738;-9.601;0.163;-1.804;-9.639;0.077;0.066;0.038;0.086;-0.022;0.064;-0.02;-2.9;-4.0;30.9;49.74;5763;2018-04-16 22:41:05:087
-1.727;-9.541;0.101;-1.804;-9.639;0.077;0.066;0.038;0.086;-0.022;0.064;-0.02;-2.9;-4.0;30.9;49.74;5773;2018-04-16 22:41:05:097
-1.727;-9.541;0.101;-1.799;-9.64;0.072;0.092;0.085;0.02;-0.012;0.088;-0.027;-2.9;-4.0;30.8;49.74;5783;2018-04-16 22:41:05:107
-1.732;-9.505;0.072;-1.799;-9.64;0.072;0.092;0.085;0.02;-0.006;0.089;-0.031;-2.9;-3.9;30.8;49.74;5793;2018-04-16 22:41:05:117
-1.732;-9.505;0.072;-1.793;-9.641;0.068;0.025;0.139;-0.025;0.005;0.077;-0.033;-2.9;-3.9;30.8;49.74;5803;2018-04-16 22:41:05:127
-1.798;-9.506;0.043;-1.793;-9.641;0.068;0.025;0.139;-0.025;0.015;0.064;-0.031;-2.8;-3.9;30.7;49.74;5813;2018-04-16 22:41:05:137
-1.798;-9.515;0.018;-1.787;-9.642;0.068;-0.015;0.137;-0.059;0.015;0.064;-0.031;-2.8;-3.9;30.7;49.74;5823;2018-04-16 22:41:05:147
-1.798;-9.515;0.018;-1.787;-9.642;0.068;-0.015;0.137;-0.059;0.018;0.034;-0.022;-2.8;-3.9;30.8;48.83;5832;2018-04-16 22:41:05:156
-1.779;-9.54;-0.002;-1.784;-9.643;0.069;0.005;0.103;-0.072;0.018;0.02;-0.016;-2.8;-3.9;30.8;48.83;5843;2018-04-16 22:41:05:167
-1.765;-9.528;0.035;-1.784;-9.643;0.069;0.005;0.103;-0.072;0.015;0.011;-0.015;-2.9;-3.9;30.7;48.83;5852;2018-04-16 22:41:05:176
-1.765;-9.528;0.035;-1.781;-9.643;0.071;0.012;0.114;-0.028;0.009;0.017;-0.016;-2.9;-3.9;30.7;48.83;5863;2018-04-16 22:41:05:187
-1.762;-9.5;0.062;-1.781;-9.643;0.071;0.012;0.114;-0.028;0.009;0.017;-0.016;-2.8;-3.9;30.8;48.83;5873;2018-04-16 22:41:05:197
-1.776;-9.449;0.103;-1.778;-9.644;0.07;0.002;0.195;0.033;0.001;0.038;-0.016;-2.8;-3.9;30.8;48.83;5883;2018-04-16 22:41:05:207
-1.82;-9.445;0.156;-1.778;-9.644;0.07;0.002;0.195;0.033;0.002;0.071;-0.021;-2.8;-4.0;30.9;48.83;5894;2018-04-16 22:41:05:218
-1.82;-9.445;0.156;-1.775;-9.644;0.069;-0.035;0.194;0.096;0.002;0.071;-0.021;-2.8;-4.0;30.9;48.83;5903;2018-04-16 22:41:05:227
-1.859;-9.462;0.211;-1.775;-9.644;0.069;-0.035;0.194;0.096;0.01;0.094;-0.018;-2.8;-4.0;30.8;48.83;5913;2018-04-16 22:41:05:237
-1.859;-9.462;0.211;-1.773;-9.645;0.07;-0.099;0.154;0.133;0.024;0.103;-0.018;-2.8;-4.0;30.8;48.83;5923;2018-04-16 22:41:05:247
-1.866;-9.495;0.215;-1.773;-9.645;0.07;-0.099;0.154;0.133;0.048;0.101;-0.016;-2.9;-4.1;30.8;48.83;5933;2018-04-16 22:41:05:257
-1.878;-9.537;0.188;-1.771;-9.645;0.077;-0.107;0.108;0.111;0.064;0.09;-0.013;-2.9;-4.1;30.9;48.83;5943;2018-04-16 22:41:05:267
-1.878;-9.537;0.188;-1.771;-9.645;0.077;-0.107;0.108;0.111;0.064;0.09;-0.013;-2.9;-4.1;30.9;48.83;5953;2018-04-16 22:41:05:277
-1.85;-9.573;0.127;-1.77;-9.645;0.09;-0.08;0.072;0.037;0.083;0.064;-0.015;-2.9;-4.0;30.9;48.83;5963;2018-04-16 22:41:05:287
-1.798;-9.554;0.055;-1.77;-9.645;0.09;-0.08;0.072;0.037;0.098;0.038;-0.015;-2.9;-4.1;30.9;48.83;5973;2018-04-16 22:41:05:297
-1.798;-9.554;0.055;-1.768;-9.645;0.108;-0.024;0.094;-0.052;0.1;0.012;-0.01;-2.9;-4.1;30.9;48.83;5983;2018-04-16 22:41:05:307
-1.772;-9.542;0.037;-1.768;-9.645;0.108;-0.024;0.094;-0.052;0.1;-0.033;-0.013;-2.9;-4.1;31.0;48.83;5993;2018-04-16 22:41:05:317
-1.736;-9.546;-0.023;-1.765;-9.646;0.127;0.013;0.1;-0.113;0.1;-0.033;-0.013;-2.9;-4.1;31.0;48.83;6003;2018-04-16 22:41:05:327
-1.736;-9.546;-0.023;-1.765;-9.646;0.127;0.013;0.1;-0.113;0.098;-0.061;-0.016;-2.9;-4.0;30.9;48.83;6012;2018-04-16 22:41:05:336
-1.693;-9.596;-0.097;-1.761;-9.646;0.146;0.069;0.05;-0.243;0.093;-0.082;-0.017;-3.0;-4.0;30.8;48.83;6023;2018-04-16 22:41:05:347
-1.693;-9.596;-0.097;-1.761;-9.646;0.146;0.069;0.05;-0.243;0.097;-0.104;-0.023;-3.0;-4.0;30.8;48.83;6033;2018-04-16 22:41:05:357
-1.665;-9.652;-0.139;-1.755;-9.647;0.165;0.094;-0.021;-0.322;0.089;-0.116;-0.034;-3.0;-4.0;30.9;48.83;6044;2018-04-16 22:41:05:368
-1.65;-9.664;-0.169;-1.755;-9.647;0.165;0.094;-0.021;-0.322;0.089;-0.116;-0.034;-3.0;-3.9;30.8;48.83;6053;2018-04-16 22:41:05:377
-1.664;-9.676;-0.186;-1.745;-9.648;0.18;0.089;-0.027;-0.358;0.073;-0.097;-0.048;-3.0;-3.9;30.8;48.83;6063;2018-04-16 22:41:05:387
-1.664;-9.676;-0.186;-1.745;-9.648;0.18;0.089;-0.027;-0.358;0.056;-0.066;-0.051;-2.9;-3.8;30.9;48.83;6073;2018-04-16 22:41:05:397
-1.684;-9.634;-0.199;-1.734;-9.65;0.187;0.05;0.016;-0.385;0.035;-0.028;-0.059;-2.9;-3.8;30.9;48.83;6083;2018-04-16 22:41:05:407
-1.709;-9.56;-0.195;-1.734;-9.65;0.187;0.05;0.016;-0.385;0.016;0.021;-0.062;-3.0;-3.8;31.0;48.83;6093;2018-04-16 22:41:05:417
-1.709;-9.56;-0.195;-1.721;-9.653;0.182;0.01;0.103;-0.351;-0.005;0.072;-0.066;-3.0;-3.8;31.0;48.83;6103;2018-04-16 22:41:05:427
-1.753;-9.498;-0.135;-1.721;-9.653;0.182;0.01;0.103;-0.351;-0.034;0.16;-0.068;-3.0;-3.9;31.0;48.83;6116;2018-04-16 22:41:05:440
-1.809;-9.473;-0.098;-1.71;-9.655;0.167;-0.099;0.182;-0.265;-0.034;0.16;-0.068;-3.0;-3.9;31.0;48.83;6123;2018-04-16 22:41:05:447
-1.848;-9.464;-0.051;-1.705;-9.656;0.156;-0.144;0.192;-0.208;-0.064;0.258;-0.066;-3.0;-3.9;31.0;48.83;6136;2018-04-16 22:41:05:460
-1.848;-9.464;-0.051;-1.705;-9.656;0.156;-0.144;0.192;-0.208;-0.064;0.258;-0.066;-3.0;-3.8;31.1;48.83;6142;2018-04-16 22:41:05:466
-1.917;-9.468;-0.008;-1.697;-9.658;0.13;-0.22;0.19;-0.139;-0.078;0.307;-0.051;-3.0;-3.8;31.1;48.83;6153;2018-04-16 22:41:05:477
-1.929;-9.463;0.007;-1.697;-9.658;0.13;-0.22;0.19;-0.139;-0.082;0.315;-0.04;-3.0;-3.7;31.1;48.83;6163;2018-04-16 22:41:05:487
-1.929;-9.463;0.007;-1.694;-9.659;0.103;-0.245;0.188;-0.091;-0.078;0.309;-0.022;-3.0;-3.7;31.1;48.94;6173;2018-04-16 22:41:05:497
-1.988;-9.495;0.043;-1.694;-9.659;0.103;-0.245;0.188;-0.091;-0.082;0.285;0.001;-3.1;-3.7;30.9;48.94;6183;2018-04-16 22:41:05:507
-2.006;-9.482;0.071;-1.698;-9.658;0.077;-0.308;0.163;-0.021;-0.082;0.285;0.001;-3.1;-3.7;30.9;48.94;6193;2018-04-16 22:41:05:517
-2.006;-9.482;0.071;-1.698;-9.658;0.077;-0.308;0.163;-0.021;-0.097;0.266;0.033;-3.1;-3.7;30.9;48.94;6203;2018-04-16 22:41:05:527
-1.984;-9.486;0.06;-1.71;-9.656;0.049;-0.274;0.17;0.011;-0.104;0.232;0.053;-3.1;-3.7;30.9;48.94;6213;2018-04-16 22:41:05:537
-1.909;-9.467;0.041;-1.71;-9.656;0.049;-0.274;0.17;0.011;-0.083;0.176;0.07;-3.2;-3.6;30.8;48.94;6223;2018-04-16 22:41:05:547
-1.909;-9.467;0.041;-1.727;-9.653;0.031;-0.164;0.195;0.008;-0.031;0.042;0.095;-3.2;-3.6;30.8;48.94;6232;2018-04-16 22:41:05:556
-1.856;-9.449;0.043;-1.727;-9.653;0.031;-0.164;0.195;0.008;0.006;-0.056;0.108;-3.2;-3.6;30.8;48.94;6243;2018-04-16 22:41:05:567
-1.784;-9.489;0.044;-1.749;-9.649;0.034;-0.068;0.181;0.009;0.051;-0.156;0.127;-3.2;-3.6;30.8;48.94;6252;2018-04-16 22:41:05:576
-1.784;-9.489;0.044;-1.749;-9.649;0.034;-0.068;0.181;0.009;0.057;-0.192;0.14;-3.3;-3.5;30.8;48.94;6263;2018-04-16 22:41:05:587
-1.675;-9.457;0.054;-1.775;-9.645;0.051;0.1;0.187;0.003;0.045;-0.202;0.143;-3.2;-3.5;30.7;48.94;6273;2018-04-16 22:41:05:597
-1.638;-9.507;0.102;-1.788;-9.642;0.059;0.151;0.135;0.043;0.045;-0.202;0.143;-3.2;-3.5;30.7;48.94;6283;2018-04-16 22:41:05:607
-1.638;-9.507;0.102;-1.788;-9.642;0.059;0.151;0.135;0.043;0.007;-0.17;0.165;-3.3;-3.5;30.7;48.94;6293;2018-04-16 22:41:05:617
-1.383;-9.663;0.184;-1.816;-9.637;0.065;0.433;-0.026;0.12;-0.026;-0.131;0.17;-3.3;-3.5;30.7;48.94;6303;2018-04-16 22:41:05:627
-1.154;-9.786;0.194;-1.816;-9.637;0.065;0.433;-0.026;0.12;-0.026;-0.126;0.169;-3.3;-3.5;30.8;48.94;6312;2018-04-16 22:41:05:636
-1.154;-9.786;0.194;-1.842;-9.632;0.067;0.752;-0.157;0.121;-0.026;-0.126;0.169;-3.3;-3.5;30.8;48.94;6323;2018-04-16 22:41:05:647
-0.953;-9.787;0.163;-1.842;-9.632;0.067;0.752;-0.157;0.121;0.009;-0.162;0.159;-3.3;-3.6;30.7;48.94;6333;2018-04-16 22:41:05:657
-0.953;-9.787;0.163;-1.862;-9.628;0.078;0.964;-0.144;0.099;0.032;-0.195;0.144;-3.3;-3.6;30.7;48.94;6342;2018-04-16 22:41:05:666
-0.879;-9.787;0.208;-1.862;-9.628;0.078;0.964;-0.144;0.099;0.045;-0.213;0.131;-3.3;-3.5;30.7;48.94;6353;2018-04-16 22:41:05:677
-0.852;-9.796;0.201;-1.876;-9.625;0.095;1.024;-0.171;0.106;0.028;-0.202;0.12;-3.3;-3.6;30.6;48.94;6362;2018-04-16 22:41:05:686
-0.766;-9.849;0.244;-1.876;-9.625;0.095;1.024;-0.171;0.106;0.015;-0.193;0.104;-3.3;-3.6;30.6;48.94;6373;2018-04-16 22:41:05:697
-0.766;-9.849;0.244;-1.885;-9.623;0.106;1.176;-0.177;0.142;0.009;-0.184;0.083;-3.4;-3.6;30.4;48.94;6383;2018-04-16 22:41:05:707
-0.663;-9.746;0.284;-1.885;-9.623;0.106;1.176;-0.177;0.142;0.009;-0.184;0.083;-3.4;-3.6;30.4;48.94;6393;2018-04-16 22:41:05:717
-0.656;-9.578;0.379;-1.883;-9.623;0.12;1.242;0.002;0.217;0.037;-0.186;0.042;-3.4;-3.5;30.4;48.94;6405;2018-04-16 22:41:05:729
-0.656;-9.578;0.379;-1.883;-9.623;0.12;1.242;0.002;0.217;0.07;-0.175;0.009;-3.4;-3.5;30.4;48.94;6413;2018-04-16 22:41:05:737
-0.779;-9.53;0.425;-1.871;-9.625;0.144;1.092;0.095;0.281;0.114;-0.127;-0.021;-3.4;-3.5;30.5;48.94;6423;2018-04-16 22:41:05:747
-0.998;-9.665;0.464;-1.871;-9.625;0.144;1.092;0.095;0.281;0.139;-0.077;-0.04;-3.4;-3.5;30.5;48.94;6433;2018-04-16 22:41:05:757
-0.998;-9.665;0.464;-1.855;-9.628;0.176;0.745;-0.085;0.3;0.139;-0.077;-0.04;-3.4;-3.5;30.5;48.94;6445;2018-04-16 22:41:05:769
-1.214;-9.77;0.484;-1.855;-9.628;0.176;0.745;-0.085;0.3;0.159;-0.017;-0.057;-3.3;-3.5;30.5;48.94;6453;2018-04-16 22:41:05:777
-1.561;-9.713;0.414;-1.838;-9.63;0.211;0.336;-0.155;0.25;0.182;0.066;-0.064;-3.3;-3.5;30.5;48.94;6463;2018-04-16 22:41:05:787
-1.561;-9.713;0.414;-1.838;-9.63;0.211;0.336;-0.155;0.25;0.197;0.115;-0.056;-3.3;-3.5;30.5;48.94;6473;2018-04-16 22:41:05:797
-1.665;-9.516;0.291;-1.826;-9.632;0.245;0.161;0.116;0.045;0.206;0.14;-0.061;-3.3;-3.5;30.6;48.94;6483;2018-04-16 22:41:05:807
-1.905;-9.369;0.195;-1.826;-9.632;0.245;0.161;0.116;0.045;0.215;0.139;-0.072;-3.3;-3.5;30.6;49.65;6493;2018-04-16 22:41:05:817
-1.905;-9.369;0.195;-1.815;-9.633;0.282;-0.116;0.296;-0.151;0.231;0.103;-0.056;-3.2;-3.5;30.6;49.65;6503;2018-04-16 22:41:05:827
-1.962;-9.292;0.073;-1.815;-9.633;0.282;-0.116;0.296;-0.151;0.224;0.067;-0.045;-3.2;-3.5;30.6;49.65;6513;2018-04-16 22:41:05:837
-2.041;-9.317;0.044;-1.808;-9.633;0.321;-0.221;0.33;-0.269;0.199;0.032;-0.029;-3.2;-3.4;30.5;49.65;6523;2018-04-16 22:41:05:847
-2.041;-9.317;0.044;-1.808;-9.633;0.321;-0.221;0.33;-0.269;0.172;-0.043;0.011;-3.2;-3.4;30.5;49.65;6533;2018-04-16 22:41:05:857
-1.985;-9.339;0.028;-1.81;-9.632;0.353;-0.175;0.293;-0.325;0.172;-0.108;0.039;-3.1;-3.3;30.6;49.65;6543;2018-04-16 22:41:05:867
-1.802;-9.479;0.049;-1.81;-9.632;0.353;-0.175;0.293;-0.325;0.169;-0.166;0.059;-3.1;-3.3;30.6;49.65;6553;2018-04-16 22:41:05:877
-1.802;-9.479;0.049;-1.819;-9.629;0.387;0.074;0.136;-0.321;0.166;-0.206;0.076;-3.1;-3.2;30.6;49.65;6562;2018-04-16 22:41:05:886
-1.58;-9.548;0.071;-1.819;-9.629;0.387;0.074;0.136;-0.321;0.159;-0.231;0.081;-3.1;-3.2;30.6;49.65;6573;2018-04-16 22:41:05:897
-1.446;-9.614;0.132;-1.83;-9.625;0.424;0.341;0.022;-0.308;0.145;-0.243;0.086;-3.1;-3.1;30.6;49.65;6583;2018-04-16 22:41:05:907
-1.362;-9.612;0.164;-1.83;-9.625;0.424;0.341;0.022;-0.308;0.137;-0.244;0.09;-3.0;-3.1;30.6;49.65;6593;2018-04-16 22:41:05:917
-1.362;-9.612;0.164;-1.84;-9.622;0.456;0.498;0.001;-0.292;0.137;-0.244;0.087;-3.0;-3.1;30.6;49.65;6603;2018-04-16 22:41:05:927
-1.34;-9.614;0.204;-1.84;-9.622;0.456;0.498;0.001;-0.292;0.151;-0.25;0.084;-3.0;-3.0;30.5;49.65;6613;2018-04-16 22:41:05:937
-1.525;-9.765;0.305;-1.849;-9.618;0.491;0.398;-0.086;-0.218;0.151;-0.25;0.084;-3.0;-3.0;30.5;49.65;6625;2018-04-16 22:41:05:949
-1.525;-9.765;0.305;-1.855;-9.616;0.513;0.277;-0.162;-0.19;0.188;-0.242;0.084;-3.0;-3.0;30.5;49.65;6633;2018-04-16 22:41:05:957
-1.638;-9.782;0.352;-1.855;-9.616;0.513;0.277;-0.162;-0.19;0.188;-0.242;0.084;-2.9;-2.9;30.5;49.65;6643;2018-04-16 22:41:05:967
-1.638;-9.782;0.352;-1.87;-9.61;0.562;0.143;-0.086;-0.177;0.241;-0.187;0.109;-2.9;-2.9;30.5;49.65;6653;2018-04-16 22:41:05:977
-1.709;-9.613;0.37;-1.87;-9.61;0.562;0.143;-0.086;-0.177;0.261;-0.138;0.122;-2.9;-2.8;30.6;49.65;6663;2018-04-16 22:41:05:987
-1.647;-9.561;0.332;-1.892;-9.603;0.615;0.231;0.052;-0.271;0.265;-0.038;0.132;-2.9;-2.8;30.6;49.65;6673;2018-04-16 22:41:05:997
-1.647;-9.561;0.332;-1.892;-9.603;0.615;0.231;0.052;-0.271;0.253;0.032;0.142;-2.8;-2.7;30.7;49.65;6683;2018-04-16 22:41:06:007
-1.528;-9.6;0.274;-1.915;-9.595;0.658;0.388;-0.004;-0.384;0.241;0.081;0.144;-2.8;-2.7;30.7;49.65;6693;2018-04-16 22:41:06:017
-1.396;-9.707;0.221;-1.915;-9.595;0.658;0.388;-0.004;-0.384;0.246;0.101;0.147;-2.8;-2.6;30.6;49.65;6703;2018-04-16 22:41:06:027
-1.396;-9.707;0.221;-1.939;-9.588;0.697;0.577;-0.182;-0.499;0.247;0.109;0.14;-2.8;-2.6;30.6;49.65;6712;2018-04-16 22:41:06:036
-1.287;-9.79;0.18;-1.939;-9.588;0.697;0.577;-0.182;-0.499;0.247;0.109;0.14;-2.7;-2.4;30.5;49.65;6723;2018-04-16 22:41:06:047
-1.249;-9.827;0.196;-1.96;-9.581;0.733;0.695;-0.24;-0.55;0.232;0.109;0.13;-2.7;-2.4;30.5;49.65;6732;2018-04-16 22:41:06:056
-1.249;-9.827;0.196;-1.96;-9.581;0.733;0.695;-0.24;-0.55;0.219;0.101;0.121;-2.7;-2.3;30.5;49.65;6743;2018-04-16 22:41:06:067
-1.126;-9.699;0.198;-1.976;-9.575;0.766;0.85;-0.124;-0.569;0.225;0.089;0.112;-2.7;-2.3;30.5;49.65;6753;2018-04-16 22:41:06:077
-1.074;-9.535;0.254;-1.976;-9.575;0.766;0.85;-0.124;-0.569;0.246;0.06;0.101;-2.7;-2.1;30.5;49.65;6763;2018-04-16 22:41:06:087
-1.074;-9.535;0.254;-1.987;-9.569;0.809;0.925;0.051;-0.528;0.301;0.028;0.087;-2.7;-2.1;30.5;49.65;6773;2018-04-16 22:41:06:097
-1.064;-9.486;0.324;-1.987;-9.569;0.809;0.925;0.051;-0.528;0.301;0.028;0.087;-2.7;-2.0;30.4;49.65;6783;2018-04-16 22:41:06:107
-1.15;-9.586;0.347;-1.995;-9.562;0.867;0.876;0.033;-0.526;0.352;0.033;0.079;-2.7;-2.0;30.4;49.65;6793;2018-04-16 22:41:06:117
-1.15;-9.586;0.347;-1.995;-9.562;0.867;0.876;0.033;-0.526;0.381;0.077;0.082;-2.7;-1.8;30.4;49.65;6803;2018-04-16 22:41:06:127
-1.17;-9.637;0.37;-2.003;-9.555;0.931;0.834;-0.082;-0.561;0.381;0.077;0.082;-2.7;-1.8;30.4;49.41;6813;2018-04-16 22:41:06:137
-0.984;-9.582;0.378;-2.003;-9.555;0.931;0.834;-0.082;-0.561;0.401;0.134;0.099;-2.7;-1.6;30.3;49.41;6823;2018-04-16 22:41:06:147
-0.984;-9.582;0.378;-2.017;-9.545;0.997;1.088;-0.066;-0.64;0.419;0.224;0.114;-2.7;-1.6;30.3;49.41;6833;2018-04-16 22:41:06:157
-0.874;-9.79;0.352;-2.017;-9.545;0.997;1.088;-0.066;-0.64;0.391;0.285;0.11;-2.7;-1.5;30.2;49.41;6843;2018-04-16 22:41:06:167
-0.98;-9.973;0.312;-2.035;-9.535;1.054;1.079;-0.38;-0.744;0.336;0.353;0.125;-2.7;-1.5;30.2;49.41;6853;2018-04-16 22:41:06:177
-0.98;-9.973;0.312;-2.035;-9.535;1.054;1.079;-0.38;-0.744;0.287;0.403;0.147;-2.6;-1.3;30.2;49.41;6863;2018-04-16 22:41:06:187
-0.917;-10.247;0.262;-2.064;-9.525;1.089;1.147;-0.722;-0.827;0.272;0.402;0.156;-2.6;-1.3;30.2;49.41;6873;2018-04-16 22:41:06:197
-0.69;-10.432;0.207;-2.064;-9.525;1.089;1.147;-0.722;-0.827;0.272;0.402;0.156;-2.7;-1.1;30.0;49.41;6882;2018-04-16 22:41:06:206
-0.69;-10.432;0.207;-2.094;-9.514;1.126;1.446;-0.964;-0.945;0.293;0.315;0.131;-2.7;-1.1;30.0;49.41;6893;2018-04-16 22:41:06:217
-0.596;-10.654;0.157;-2.094;-9.514;1.126;1.446;-0.964;-0.945;0.283;0.252;0.1;-2.7;-0.9;30.0;49.41;6902;2018-04-16 22:41:06:226
-0.487;-10.83;0.09;-2.114;-9.505;1.165;1.603;-1.267;-1.06;0.198;0.173;0.037;-2.7;-0.9;30.0;49.41;6913;2018-04-16 22:41:06:237
-0.487;-10.83;0.09;-2.114;-9.505;1.165;1.603;-1.267;-1.06;0.114;0.114;-0.029;-2.8;-0.7;30.1;49.41;6923;2018-04-16 22:41:06:247
-0.663;-10.985;0.156;-2.111;-9.504;1.182;1.448;-1.481;-1.026;0.031;0.053;-0.1;-2.8;-0.7;30.1;49.41;6932;2018-04-16 22:41:06:256
-1.073;-10.897;0.445;-2.111;-9.504;1.182;1.448;-1.481;-1.026;-0.05;0.01;-0.158;-2.8;-0.5;29.9;49.41;6943;2018-04-16 22:41:06:267
-1.073;-10.897;0.445;-2.082;-9.511;1.172;0.889;-1.331;-0.647;-0.05;0.01;-0.158;-2.8;-0.5;29.9;49.41;6952;2018-04-16 22:41:06:276
-1.464;-10.658;0.699;-2.033;-9.526;1.135;0.291;-0.946;-0.272;-0.209;0.075;-0.281;-2.9;-0.3;29.9;49.41;6963;2018-04-16 22:41:06:287
-1.952;-10.35;0.939;-2.033;-9.526;1.135;0.291;-0.946;-0.272;-0.209;0.075;-0.281;-2.9;-0.3;29.9;49.41;6973;2018-04-16 22:41:06:297
-1.952;-10.35;0.939;-2.033;-9.526;1.135;0.291;-0.946;-0.272;-0.232;0.195;-0.314;-3.0;0.0;29.9;49.41;6983;2018-04-16 22:41:06:307
-2.339;-9.942;0.96;-1.978;-9.544;1.084;-0.361;-0.398;-0.124;-0.187;0.244;-0.323;-3.0;0.0;29.9;49.41;6993;2018-04-16 22:41:06:317
-2.453;-9.568;0.851;-1.978;-9.544;1.084;-0.361;-0.398;-0.124;-0.187;0.244;-0.323;-3.1;0.0;29.9;49.41;7003;2018-04-16 22:41:06:327
-2.453;-9.568;0.851;-1.923;-9.559;1.05;-0.499;0.105;-0.286;-0.075;0.265;-0.348;-3.1;0.0;29.9;49.41;7013;2018-04-16 22:41:06:337
-2.315;-9.342;0.634;-1.923;-9.559;1.05;-0.499;0.105;-0.286;-0.043;0.308;-0.362;-3.2;0.0;29.8;49.41;7023;2018-04-16 22:41:06:347
-2.26;-9.382;0.236;-1.863;-9.574;1.017;-0.397;0.192;-0.781;-0.095;0.374;-0.382;-3.3;0.2;29.7;49.41;7033;2018-04-16 22:41:06:357
-2.386;-9.53;-0.261;-1.863;-9.574;1.017;-0.397;0.192;-0.781;-0.205;0.44;-0.398;-3.3;0.2;29.7;49.41;7043;2018-04-16 22:41:06:367
-2.386;-9.53;-0.261;-1.801;-9.594;0.936;-0.624;0.045;-1.271;-0.435;0.458;-0.395;-3.5;0.3;29.5;49.41;7053;2018-04-16 22:41:06:377
-2.544;-9.595;-0.45;-1.801;-9.594;0.936;-0.624;0.045;-1.271;-0.6;0.428;-0.378;-3.5;0.3;29.5;49.41;7063;2018-04-16 22:41:06:387
-2.715;-9.582;-0.174;-1.743;-9.618;0.796;-0.893;0.06;-1.098;-0.767;0.409;-0.348;-3.6;0.5;29.5;49.41;7073;2018-04-16 22:41:06:397
-2.715;-9.582;-0.174;-1.743;-9.618;0.796;-0.893;0.06;-1.098;-0.932;0.43;-0.309;-3.6;0.5;29.5;49.41;7083;2018-04-16 22:41:06:407
-2.887;-9.64;0.287;-1.698;-9.64;0.599;-1.19;0.0;-0.312;-0.932;0.43;-0.309;-3.7;0.6;29.4;49.41;7093;2018-04-16 22:41:06:417
-3.001;-9.511;0.535;-1.698;-9.64;0.599;-1.19;0.0;-0.312;-1.156;0.562;-0.238;-3.7;0.6;29.4;49.41;7103;2018-04-16 22:41:06:427
-3.001;-9.511;0.535;-1.669;-9.657;0.346;-1.405;0.137;0.205;-1.346;0.755;-0.21;-3.9;0.6;29.5;49.41;7113;2018-04-16 22:41:06:437
-3.293;-9.459;0.526;-1.669;-9.657;0.346;-1.405;0.137;0.205;-1.374;0.801;-0.188;-3.9;0.6;29.5;49.41;7123;2018-04-16 22:41:06:447
-3.594;-9.401;-0.16;-1.648;-9.667;0.059;-1.869;0.249;0.068;-1.374;0.801;-0.188;-4.1;0.6;29.4;49.99;7133;2018-04-16 22:41:06:457
-3.594;-9.401;-0.16;-1.648;-9.667;0.059;-1.869;0.249;0.068;-1.315;0.701;-0.137;-4.1;0.6;29.4;49.99;7143;2018-04-16 22:41:06:467
-3.658;-9.504;-1.614;-1.635;-9.667;-0.212;-2.023;0.163;-1.402;-1.19;0.279;-0.073;-4.3;0.5;29.4;49.99;7152;2018-04-16 22:41:06:476
-3.485;-9.61;-1.885;-1.635;-9.667;-0.212;-2.023;0.163;-1.402;-1.139;-0.104;-0.028;-4.3;0.5;29.4;49.99;7162;2018-04-16 22:41:06:486
-3.485;-9.61;-1.885;-1.635;-9.66;-0.434;-1.808;-0.049;-1.049;-1.095;-0.426;0.013;-4.6;0.3;29.4;49.99;7172;2018-04-16 22:41:06:496
-3.071;-9.687;-0.267;-1.635;-9.66;-0.434;-1.808;-0.049;-1.049;-1.057;-0.479;0.015;-4.6;0.3;29.4;49.99;7183;2018-04-16 22:41:06:507
-2.998;-9.881;1.311;-1.65;-9.647;-0.62;-1.344;-0.141;1.438;-1.054;-0.247;0.016;-4.8;0.1;29.3;49.99;7193;2018-04-16 22:41:06:517
-2.998;-9.881;1.311;-1.65;-9.647;-0.62;-1.344;-0.141;1.438;-1.071;0.159;0.033;-4.8;0.1;29.3;49.99;7202;2018-04-16 22:41:06:526
-2.695;-9.951;1.577;-1.656;-9.63;-0.827;-1.039;-0.321;2.403;-1.118;0.617;0.039;-5.0;-0.1;29.1;49.99;7212;2018-04-16 22:41:06:536
-2.687;-9.906;1.65;-1.654;-9.619;-0.957;-1.033;-0.287;2.606;-1.141;0.922;0.056;-5.0;-0.1;29.1;49.99;7222;2018-04-16 22:41:06:546
-1.907;-9.99;2.708;-1.654;-9.619;-0.957;-1.033;-0.287;2.606;-1.141;0.922;0.056;-5.3;-0.4;29.1;49.99;7233;2018-04-16 22:41:06:557
-1.907;-9.99;2.708;-1.644;-9.597;-1.167;-0.1;-0.473;3.802;-0.881;0.9;0.032;-5.3;-0.4;29.1;49.99;7243;2018-04-16 22:41:06:567
-1.602;-10.38;1.311;-1.644;-9.597;-1.167;-0.1;-0.473;3.802;-0.524;0.661;-0.054;-5.5;-0.7;28.9;49.99;7253;2018-04-16 22:41:06:577
-1.183;-10.833;-0.777;-1.618;-9.586;-1.291;0.213;-1.071;1.056;-0.524;0.661;-0.054;-5.5;-0.7;28.9;49.99;7263;2018-04-16 22:41:06:587
-1.183;-10.833;-0.777;-1.618;-9.586;-1.291;0.213;-1.071;1.056;-0.569;0.596;-0.061;-5.7;-1.1;28.9;49.99;7273;2018-04-16 22:41:06:597
-0.043;-10.769;-1.366;-1.583;-9.572;-1.431;1.54;-1.197;0.065;-0.677;0.613;-0.127;-5.9;-1.3;28.8;49.99;7283;2018-04-16 22:41:06:607
-0.083;-10.871;-1.41;-1.583;-9.572;-1.431;1.54;-1.197;0.065;-0.715;0.577;-0.274;-5.9;-1.3;28.8;49.99;7293;2018-04-16 22:41:06:617
-0.083;-10.871;-1.41;-1.514;-9.559;-1.583;1.452;-1.183;0.186;-0.715;0.577;-0.274;-6.2;-1.8;28.7;49.99;7302;2018-04-16 22:41:06:626
-0.023;-10.315;-1.211;-1.514;-9.559;-1.583;1.452;-1.183;0.186;-0.589;0.376;-0.346;-6.2;-1.8;28.7;49.99;7313;2018-04-16 22:41:06:637
-0.687;-10.064;-0.443;-1.424;-9.555;-1.689;1.005;-0.604;0.939;-0.473;0.272;-0.425;-6.5;-2.3;28.6;49.99;7322;2018-04-16 22:41:06:646
-0.687;-10.064;-0.443;-1.424;-9.555;-1.689;1.005;-0.604;0.939;-0.345;0.282;-0.5;-6.5;-2.3;28.6;49.99;7332;2018-04-16 22:41:06:656
-1.207;-9.428;-0.387;-1.305;-9.563;-1.739;0.098;0.134;1.352;-0.214;0.374;-0.575;-6.7;-2.7;28.6;49.99;7343;2018-04-16 22:41:06:667
-1.599;-8.797;-0.949;-1.305;-9.563;-1.739;0.098;0.134;1.352;-0.095;0.411;-0.655;-6.7;-2.7;28.6;49.99;7353;2018-04-16 22:41:06:677
-1.599;-8.797;-0.949;-1.169;-9.576;-1.762;-0.6;0.983;0.651;-0.02;0.186;-0.679;-7.0;-3.2;28.5;49.99;7363;2018-04-16 22:41:06:687
-1.812;-8.386;-1.427;-1.169;-9.576;-1.762;-0.6;0.983;0.651;-0.034;-0.221;-0.639;-7.0;-3.2;28.5;49.99;7373;2018-04-16 22:41:06:697
-2.146;-8.51;-0.832;-1.047;-9.59;-1.764;-0.965;1.157;0.575;-0.115;-0.475;-0.589;-7.3;-3.7;28.4;49.99;7383;2018-04-16 22:41:06:707
-2.146;-8.51;-0.832;-1.047;-9.59;-1.764;-0.965;1.157;0.575;-0.115;-0.475;-0.589;-7.3;-3.7;28.4;49.99;7393;2018-04-16 22:41:06:717
-2.339;-8.532;-0.39;-0.964;-9.595;-1.783;-1.375;1.063;1.393;-0.214;-0.59;-0.507;-7.5;-4.1;28.4;49.99;7403;2018-04-16 22:41:06:727
-2.665;-8.959;-0.351;-0.964;-9.595;-1.783;-1.375;1.063;1.393;-0.426;-0.434;-0.329;-7.5;-4.1;28.4;49.99;7413;2018-04-16 22:41:06:737
-2.665;-8.959;-0.351;-0.93;-9.586;-1.849;-1.808;0.533;1.387;-0.539;-0.276;-0.265;-7.6;-4.5;28.4;49.99;7423;2018-04-16 22:41:06:747
-2.749;-9.062;-0.713;-0.93;-9.586;-1.849;-1.808;0.533;1.387;-0.617;-0.162;-0.227;-7.6;-4.5;28.4;49.99;7433;2018-04-16 22:41:06:757
-2.685;-8.941;-1.219;-0.908;-9.567;-1.955;-1.758;0.562;0.91;-0.656;-0.105;-0.228;-7.8;-4.9;28.2;49.99;7443;2018-04-16 22:41:06:767
-2.685;-8.941;-1.219;-0.908;-9.567;-1.955;-1.758;0.562;0.91;-0.678;-0.054;-0.25;-7.8;-4.9;28.2;49.99;7452;2018-04-16 22:41:06:776
-2.848;-8.817;-1.64;-0.879;-9.543;-2.079;-1.969;0.727;0.439;-0.69;-0.007;-0.258;-7.9;-5.2;28.1;49.99;7462;2018-04-16 22:41:06:786
-2.717;-8.59;-2.193;-0.879;-9.543;-2.079;-1.969;0.727;0.439;-0.688;-0.029;-0.254;-7.9;-5.2;28.1;51.67;7473;2018-04-16 22:41:06:797
-2.717;-8.59;-2.193;-0.846;-9.517;-2.21;-1.779;0.952;0.027;-0.662;-0.098;-0.248;-8.0;-5.6;27.9;51.67;7483;2018-04-16 22:41:06:807
-2.489;-8.541;-2.037;-0.846;-9.517;-2.21;-1.779;0.952;0.027;-0.607;-0.134;-0.215;-8.0;-5.6;27.9;51.67;7493;2018-04-16 22:41:06:817
-2.008;-8.514;-1.757;-0.818;-9.493;-2.321;-1.369;0.947;0.426;-0.534;-0.103;-0.164;-8.2;-5.9;27.8;51.67;7503;2018-04-16 22:41:06:827
-2.008;-8.514;-1.757;-0.818;-9.493;-2.321;-1.369;0.947;0.426;-0.44;-0.024;-0.103;-8.2;-5.9;27.8;51.67;7512;2018-04-16 22:41:06:836
-1.581;-8.321;-1.523;-0.802;-9.474;-2.402;-0.779;1.153;0.879;-0.315;0.015;-0.029;-8.3;-6.3;27.8;51.67;7522;2018-04-16 22:41:06:846
-1.159;-7.696;-1.495;-0.802;-9.474;-2.402;-0.779;1.153;0.879;-0.183;-0.002;-0.011;-8.3;-6.3;27.8;51.67;7532;2018-04-16 22:41:06:856
-1.159;-7.696;-1.495;-0.802;-9.466;-2.435;-0.245;1.869;0.893;-0.05;-0.076;0.024;-8.4;-6.5;27.6;51.67;7543;2018-04-16 22:41:06:867
-0.941;-7.57;-1.602;-0.802;-9.466;-2.435;-0.245;1.869;0.893;0.056;-0.165;0.071;-8.4;-6.5;27.6;51.67;7553;2018-04-16 22:41:06:877
-0.712;-7.541;-1.514;-0.824;-9.467;-2.421;0.032;1.927;0.851;0.134;-0.227;0.125;-8.5;-6.8;27.6;51.67;7563;2018-04-16 22:41:06:887
-0.712;-7.541;-1.514;-0.824;-9.467;-2.421;0.032;1.927;0.851;0.21;-0.276;0.191;-8.5;-6.8;27.6;51.67;7572;2018-04-16 22:41:06:896
-0.455;-7.63;-1.389;-0.874;-9.474;-2.376;0.419;1.844;0.987;0.296;-0.345;0.255;-8.5;-7.0;27.5;51.67;7583;2018-04-16 22:41:06:907
-0.107;-7.774;-1.559;-0.874;-9.474;-2.376;0.419;1.844;0.987;0.374;-0.386;0.304;-8.5;-7.0;27.5;51.67;7593;2018-04-16 22:41:06:917
-0.107;-7.774;-1.559;-0.949;-9.486;-2.299;0.868;1.631;0.642;0.411;-0.389;0.33;-8.5;-7.2;27.4;51.67;7603;2018-04-16 22:41:06:927
0.001;-8.095;-1.852;-0.949;-9.486;-2.299;0.868;1.631;0.642;0.415;-0.373;0.362;-8.5;-7.2;27.4;51.67;7613;2018-04-16 22:41:06:937
0.02;-8.557;-2.088;-1.034;-9.498;-2.213;1.119;1.022;0.246;0.415;-0.389;0.38;-8.5;-7.2;27.3;51.67;7622;2018-04-16 22:41:06:946
0.02;-8.557;-2.088;-1.034;-9.498;-2.213;1.119;1.022;0.246;0.384;-0.397;0.415;-8.5;-7.2;27.3;51.67;7632;2018-04-16 22:41:06:956
0.126;-8.975;-2.649;-1.124;-9.505;-2.135;1.25;0.531;-0.514;0.321;-0.436;0.428;-8.5;-7.4;27.2;51.67;7643;2018-04-16 22:41:06:967
0.33;-9.531;-3.314;-1.124;-9.505;-2.135;1.25;0.531;-0.514;0.321;-0.436;0.428;-8.5;-7.4;27.2;51.67;7653;2018-04-16 22:41:06:977
0.33;-9.531;-3.314;-1.209;-9.503;-2.097;1.655;-0.187;-1.315;0.121;-0.497;0.368;-8.4;-7.5;27.1;51.67;7663;2018-04-16 22:41:06:987
0.731;-10.068;-3.613;-1.209;-9.503;-2.097;1.655;-0.187;-1.315;-0.054;-0.519;0.275;-8.4;-7.5;27.1;51.67;7672;2018-04-16 22:41:06:996
1.188;-10.399;-3.857;-1.269;-9.492;-2.111;2.285;-0.829;-1.634;-0.217;-0.535;0.144;-8.3;-7.5;27.0;51.67;7683;2018-04-16 22:41:07:007
1.188;-10.399;-3.857;-1.269;-9.492;-2.111;2.285;-0.829;-1.634;-0.417;-0.498;-0.149;-8.3;-7.5;27.0;51.67;7693;2018-04-16 22:41:07:017
1.289;-10.295;-4.047;-1.262;-9.479;-2.176;2.551;-0.816;-1.872;-0.404;-0.5;-0.253;-8.1;-7.5;27.1;51.67;7703;2018-04-16 22:41:07:027
0.637;-9.698;-4.085;-1.262;-9.479;-2.176;2.551;-0.816;-1.872;-0.305;-0.505;-0.276;-8.1;-7.5;27.1;51.67;7712;2018-04-16 22:41:07:036
0.637;-9.698;-4.085;-1.229;-9.472;-2.222;1.623;-0.008;-1.829;-0.149;-0.484;-0.253;-8.1;-7.6;27.0;51.67;7723;2018-04-16 22:41:07:047
-0.208;-8.866;-4.033;-1.229;-9.472;-2.222;1.623;-0.008;-1.829;0.028;-0.392;-0.242;-8.1;-7.6;27.0;51.67;7733;2018-04-16 22:41:07:057
-1.658;-8.611;-3.931;-1.195;-9.476;-2.224;0.126;0.887;-1.705;0.198;-0.254;-0.247;-7.9;-7.6;27.1;51.67;7743;2018-04-16 22:41:07:067
-1.658;-8.611;-3.931;-1.195;-9.476;-2.224;0.126;0.887;-1.705;0.33;-0.136;-0.226;-7.9;-7.6;27.1;51.67;7752;2018-04-16 22:41:07:076
-2.976;-8.934;-3.749;-1.171;-9.491;-2.173;-1.805;0.557;-1.577;0.404;-0.081;-0.171;-7.8;-7.7;27.1;51.67;7762;2018-04-16 22:41:07:086
-3.929;-9.517;-3.372;-1.171;-9.491;-2.173;-1.805;0.557;-1.577;0.412;-0.134;-0.09;-7.8;-7.7;27.1;51.67;7773;2018-04-16 22:41:07:097
-3.929;-9.517;-3.372;-1.163;-9.51;-2.091;-2.943;-0.202;-0.971;0.397;-0.323;-0.005;-7.6;-7.6;27.1;51.67;7783;2018-04-16 22:41:07:107
-4.343;-10.005;-2.289;-1.163;-9.51;-2.091;-2.943;-0.202;-0.971;0.368;-0.546;0.075;-7.6;-7.6;27.1;52.23;7793;2018-04-16 22:41:07:117
-3.978;-10.429;-1.626;-1.201;-9.523;-2.01;-3.067;-0.717;0.156;0.303;-0.688;0.156;-7.5;-7.6;27.0;52.23;7802;2018-04-16 22:41:07:126
-3.978;-10.429;-1.626;-1.201;-9.523;-2.01;-3.067;-0.717;0.156;0.231;-0.731;0.205;-7.5;-7.6;27.0;52.23;7813;2018-04-16 22:41:07:137
-2.892;-11.145;-1.275;-1.268;-9.527;-1.948;-1.625;-1.618;0.673;0.194;-0.632;0.225;-7.4;-7.5;26.9;52.23;7823;2018-04-16 22:41:07:147
0.108;-12.573;-2.637;-1.268;-9.527;-1.948;-1.625;-1.618;0.673;0.159;-0.358;0.182;-7.4;-7.5;26.9;52.23;7833;2018-04-16 22:41:07:157
0.108;-12.573;-2.637;-1.31;-9.529;-1.909;2.651;-3.584;-1.101;0.126;0.002;-0.005;-7.2;-7.3;26.9;52.23;7842;2018-04-16 22:41:07:166
2.49;-14.122;-2.27;-1.31;-9.529;-1.909;2.651;-3.584;-1.101;0.221;0.363;-0.264;-7.2;-7.3;26.9;52.23;7852;2018-04-16 22:41:07:176
0.485;-12.285;-0.256;-1.25;-9.545;-1.87;2.491;-4.315;1.199;0.495;0.596;-0.304;-7.0;-7.1;26.9;52.23;7863;2018-04-16 22:41:07:187
0.485;-12.285;-0.256;-1.25;-9.545;-1.87;2.491;-4.315;1.199;0.705;0.7;-0.147;-7.0;-7.1;26.9;52.23;7873;2018-04-16 22:41:07:197
-1.138;-8.529;-0.255;-1.196;-9.574;-1.756;0.057;1.044;1.501;0.693;0.683;-0.048;-6.8;-6.9;26.9;52.23;7883;2018-04-16 22:41:07:207
-3.257;-6.519;-0.148;-1.196;-9.574;-1.756;0.057;1.044;1.501;0.522;0.674;0.031;-6.8;-6.9;26.9;52.23;7893;2018-04-16 22:41:07:217
-3.257;-6.519;-0.148;-1.18;-9.59;-1.675;-2.558;3.228;1.581;0.304;0.633;0.111;-6.7;-6.8;26.9;52.23;7903;2018-04-16 22:41:07:227
-4.232;-6.432;-0.249;-1.18;-9.59;-1.675;-2.558;3.228;1.581;0.115;0.591;0.204;-6.7;-6.8;26.9;52.23;7912;2018-04-16 22:41:07:236
-4.65;-7.324;-1.179;-1.201;-9.589;-1.667;-3.376;2.679;0.873;-0.037;0.546;0.315;-6.6;-6.6;27.1;52.23;7923;2018-04-16 22:41:07:247
-4.65;-7.324;-1.179;-1.201;-9.589;-1.667;-3.376;2.679;0.873;-0.187;0.368;0.578;-6.6;-6.6;27.1;52.23;7933;2018-04-16 22:41:07:257
-4.213;-8.723;-1.311;-1.305;-9.569;-1.704;-2.908;0.846;0.394;-0.145;0.173;0.762;-6.5;-6.5;27.2;52.23;7943;2018-04-16 22:41:07:267
-3.411;-9.833;-0.697;-1.305;-9.569;-1.704;-2.908;0.846;0.394;0.044;-0.054;0.86;-6.5;-6.5;27.2;52.23;7952;2018-04-16 22:41:07:276
-3.411;-9.833;-0.697;-1.465;-9.545;-1.71;-1.742;-0.4;1.144;0.269;-0.269;0.837;-6.5;-6.3;27.2;52.23;7962;2018-04-16 22:41:07:286
-2.85;-10.08;0.019;-1.465;-9.545;-1.71;-1.742;-0.4;1.144;0.419;-0.37;0.685;-6.5;-6.3;27.2;52.23;7973;2018-04-16 22:41:07:297
-2.769;-9.948;0.379;-1.608;-9.538;-1.616;-1.123;-0.478;1.89;0.442;-0.316;0.508;-6.5;-6.2;27.1;52.23;7983;2018-04-16 22:41:07:307
-2.769;-9.948;0.379;-1.608;-9.538;-1.616;-1.123;-0.478;1.89;0.391;-0.164;0.429;-6.5;-6.2;27.1;52.23;7993;2018-04-16 22:41:07:317
-2.751;-9.543;0.317;-1.704;-9.536;-1.524;-1.047;-0.007;1.841;0.319;0.009;0.463;-6.5;-6.0;27.0;52.23;8003;2018-04-16 22:41:07:327
-2.095;-9.06;-0.049;-1.704;-9.536;-1.524;-1.047;-0.007;1.841;0.266;0.133;0.546;-6.5;-6.0;27.0;52.23;8012;2018-04-16 22:41:07:336
-2.095;-9.06;-0.049;-1.809;-9.526;-1.464;-0.09;0.49;1.3;0.309;0.142;0.611;-6.4;-5.7;27.0;52.23;8023;2018-04-16 22:41:07:347
-1.392;-8.965;-0.352;-1.809;-9.526;-1.464;-0.09;0.49;1.3;0.425;0.066;0.602;-6.4;-5.7;27.0;52.23;8033;2018-04-16 22:41:07:357
-0.991;-8.941;-0.111;-1.917;-9.518;-1.382;0.866;0.605;1.169;0.497;0.039;0.507;-6.4;-5.4;26.9;52.23;8042;2018-04-16 22:41:07:366
-0.991;-8.941;-0.111;-1.917;-9.518;-1.382;0.866;0.605;1.169;0.464;0.112;0.356;-6.4;-5.4;26.9;52.23;8053;2018-04-16 22:41:07:377
-1.269;-9.353;0.174;-1.975;-9.518;-1.293;0.706;0.165;1.466;0.371;0.25;0.233;-6.5;-5.1;26.9;52.23;8063;2018-04-16 22:41:07:387
-1.529;-9.984;0.316;-1.975;-9.518;-1.293;0.706;0.165;1.466;0.277;0.398;0.204;-6.5;-5.1;26.9;52.23;8073;2018-04-16 22:41:07:397
-1.529;-9.984;0.316;-2.002;-9.519;-1.245;0.487;-0.687;1.561;0.233;0.514;0.233;-6.5;-4.8;27.0;52.23;8082;2018-04-16 22:41:07:406
-1.165;-10.412;0.198;-2.002;-9.519;-1.245;0.487;-0.687;1.561;0.227;0.558;0.242;-6.5;-4.8;27.0;52.23;8092;2018-04-16 22:41:07:416
-0.867;-10.687;0.044;-2.03;-9.516;-1.221;1.144;-1.115;1.285;0.231;0.517;0.167;-6.5;-4.5;26.9;52.23;8103;2018-04-16 22:41:07:427
-0.867;-10.687;0.044;-2.03;-9.516;-1.221;1.144;-1.115;1.285;0.272;0.429;0.11;-6.5;-4.5;26.9;52.38;8113;2018-04-16 22:41:07:437
-0.794;-10.542;-0.035;-2.04;-9.519;-1.184;1.247;-1.023;1.15;0.338;0.293;0.098;-6.6;-4.3;26.9;52.38;8123;2018-04-16 22:41:07:447
-0.351;-10.019;-0.328;-2.04;-9.519;-1.184;1.247;-1.023;1.15;0.398;0.12;0.071;-6.6;-4.3;26.9;52.38;8133;2018-04-16 22:41:07:457
-0.351;-10.019;-0.328;-2.038;-9.528;-1.106;1.762;-0.378;0.718;0.439;-0.084;0.007;-6.7;-4.0;26.9;52.38;8142;2018-04-16 22:41:07:466
-0.235;-9.658;-0.439;-2.038;-9.528;-1.106;1.762;-0.378;0.718;0.447;-0.266;-0.072;-6.7;-4.0;26.9;52.38;8152;2018-04-16 22:41:07:476
-0.457;-9.444;-0.433;-2.013;-9.545;-1.007;1.598;0.004;0.559;0.434;-0.423;-0.138;-6.8;-3.8;26.9;52.38;8163;2018-04-16 22:41:07:487
-0.457;-9.444;-0.433;-2.013;-9.545;-1.007;1.598;0.004;0.559;0.401;-0.55;-0.181;-6.8;-3.8;26.9;52.38;8173;2018-04-16 22:41:07:497
-0.523;-9.248;-0.506;-1.979;-9.562;-0.907;1.456;0.314;0.4;0.347;-0.665;-0.199;-6.9;-3.4;26.9;52.38;8183;2018-04-16 22:41:07:507
-0.901;-9.459;-0.591;-1.979;-9.562;-0.907;1.456;0.314;0.4;0.291;-0.822;-0.213;-6.9;-3.4;26.9;52.38;8193;2018-04-16 22:41:07:517
-0.901;-9.459;-0.591;-1.945;-9.577;-0.817;1.002;0.086;0.171;0.237;-0.998;-0.195;-7.0;-3.2;26.8;52.38;8202;2018-04-16 22:41:07:526
-1.118;-9.511;-0.662;-1.945;-9.577;-0.817;1.002;0.086;0.171;0.187;-1.321;-0.225;-7.0;-3.2;26.8;52.38;8212;2018-04-16 22:41:07:536
-1.526;-9.54;-0.433;-1.917;-9.59;-0.731;0.578;0.06;0.156;0.198;-1.533;-0.261;-7.0;-3.0;26.7;52.38;8222;2018-04-16 22:41:07:546
-1.526;-9.54;-0.433;-1.917;-9.59;-0.731;0.578;0.06;0.156;0.258;-1.68;-0.288;-7.0;-3.0;26.7;52.38;8233;2018-04-16 22:41:07:557
-1.954;-9.524;0.007;-1.884;-9.604;-0.621;-0.069;0.08;0.628;0.33;-1.702;-0.294;-6.9;-2.7;26.6;52.38;8243;2018-04-16 22:41:07:567
-2.245;-9.464;0.438;-1.884;-9.604;-0.621;-0.069;0.08;0.628;0.369;-1.565;-0.288;-6.9;-2.7;26.6;52.38;8253;2018-04-16 22:41:07:577
-2.245;-9.464;0.438;-1.85;-9.618;-0.484;-0.472;0.154;1.054;0.348;-1.283;-0.277;-6.8;-2.5;26.5;52.38;8262;2018-04-16 22:41:07:586
-2.422;-9.313;0.745;-1.85;-9.618;-0.484;-0.472;0.154;1.054;0.312;-0.916;-0.265;-6.8;-2.5;26.5;52.38;8272;2018-04-16 22:41:07:596
-2.709;-9.131;1.037;-1.812;-9.63;-0.378;-0.761;0.428;1.303;0.32;-0.525;-0.264;-6.6;-2.3;26.6;52.38;8283;2018-04-16 22:41:07:607
-2.709;-9.131;1.037;-1.812;-9.63;-0.378;-0.761;0.428;1.303;0.402;-0.154;-0.238;-6.6;-2.3;26.6;52.38;8293;2018-04-16 22:41:07:617
-2.982;-9.129;1.103;-1.779;-9.64;-0.278;-1.203;0.511;1.38;0.546;0.188;-0.198;-6.5;-2.1;26.6;52.38;8303;2018-04-16 22:41:07:627
-3.01;-9.176;0.789;-1.779;-9.64;-0.278;-1.203;0.511;1.38;0.713;0.472;-0.156;-6.5;-2.1;26.6;52.38;8312;2018-04-16 22:41:07:636
-3.01;-9.176;0.789;-1.76;-9.646;-0.146;-1.21;0.439;0.795;0.834;0.716;-0.11;-6.3;-1.8;26.6;52.38;8322;2018-04-16 22:41:07:646
-2.756;-9.227;0.326;-1.76;-9.646;-0.146;-1.21;0.439;0.795;0.881;0.937;-0.046;-6.3;-1.8;26.6;52.38;8333;2018-04-16 22:41:07:657
-2.288;-9.261;-0.224;-1.759;-9.648;-0.007;-0.73;0.378;0.002;0.85;1.102;0.012;-6.1;-1.6;26.5;52.38;8343;2018-04-16 22:41:07:667
-2.288;-9.261;-0.224;-1.759;-9.648;-0.007;-0.73;0.378;0.002;0.773;1.185;0.061;-6.1;-1.6;26.5;52.38;8353;2018-04-16 22:41:07:677
-2.005;-9.455;-0.605;-1.776;-9.644;0.092;-0.229;0.189;-0.697;0.674;1.162;0.117;-6.0;-1.4;26.3;52.38;8363;2018-04-16 22:41:07:687
-1.676;-9.743;-0.895;-1.776;-9.644;0.092;-0.229;0.189;-0.697;0.591;1.031;0.176;-6.0;-1.4;26.3;52.38;8373;2018-04-16 22:41:07:697
-1.676;-9.743;-0.895;-1.812;-9.636;0.161;0.226;-0.138;-1.111;0.541;0.786;0.221;-6.0;-1.1;26.3;52.38;8383;2018-04-16 22:41:07:707
-1.319;-9.742;-1.02;-1.812;-9.636;0.161;0.226;-0.138;-1.111;0.544;0.435;0.241;-6.0;-1.1;26.3;52.38;8393;2018-04-16 22:41:07:717
-1.129;-9.703;-0.888;-1.855;-9.627;0.239;0.69;-0.071;-1.19;0.55;0.066;0.247;-5.9;-0.9;26.5;52.38;8403;2018-04-16 22:41:07:727
-1.129;-9.703;-0.888;-1.855;-9.627;0.239;0.69;-0.071;-1.19;0.518;-0.257;0.252;-5.9;-0.9;26.5;52.38;8413;2018-04-16 22:41:07:737
-1.062;-9.602;-0.719;-1.894;-9.616;0.336;0.832;0.014;-1.056;0.451;-0.538;0.268;-5.8;-0.6;26.5;52.38;8422;2018-04-16 22:41:07:746
-0.977;-9.521;-0.314;-1.894;-9.616;0.336;0.832;0.014;-1.056;0.363;-0.746;0.293;-5.8;-0.6;26.5;53.6;8432;2018-04-16 22:41:07:756
-0.977;-9.521;-0.314;-1.937;-9.604;0.426;1.014;0.125;-0.642;0.27;-0.875;0.314;-5.7;-0.3;26.7;53.6;8442;2018-04-16 22:41:07:766
-0.832;-9.473;0.047;-1.937;-9.604;0.426;1.014;0.125;-0.642;0.227;-0.942;0.319;-5.7;-0.3;26.7;53.6;8452;2018-04-16 22:41:07:776
-0.697;-9.588;0.373;-1.978;-9.592;0.505;1.271;0.06;-0.222;0.265;-0.968;0.302;-5.5;-0.1;26.8;53.6;8463;2018-04-16 22:41:07:787
-0.697;-9.588;0.373;-1.978;-9.592;0.505;1.271;0.06;-0.222;0.358;-0.954;0.247;-5.5;-0.1;26.8;53.6;8473;2018-04-16 22:41:07:797
-0.84;-9.79;0.577;-2.002;-9.581;0.611;1.162;-0.209;-0.034;0.496;-0.81;0.148;-5.3;0.0;26.9;53.6;8483;2018-04-16 22:41:07:807
-1.035;-9.827;0.611;-2.002;-9.581;0.611;1.162;-0.209;-0.034;0.496;-0.81;0.148;-5.3;0.0;26.9;53.6;8493;2018-04-16 22:41:07:817
-1.035;-9.827;0.611;-2.006;-9.571;0.74;0.939;-0.232;-0.134;0.555;-0.64;0.093;-5.0;0.4;27.0;53.6;8503;2018-04-16 22:41:07:827
-1.124;-9.688;0.523;-2.006;-9.571;0.74;0.939;-0.232;-0.134;0.583;-0.199;0.0;-5.0;0.4;27.0;53.6;8513;2018-04-16 22:41:07:837
-1.167;-9.348;0.334;-1.997;-9.563;0.859;0.811;0.07;-0.435;0.573;0.038;-0.034;-4.8;0.7;27.1;53.6;8523;2018-04-16 22:41:07:847
-1.167;-9.348;0.334;-1.997;-9.563;0.859;0.811;0.07;-0.435;0.558;0.259;-0.064;-4.8;0.7;27.1;53.6;8533;2018-04-16 22:41:07:857
-1.167;-9.214;0.071;-1.983;-9.556;0.954;0.816;0.342;-0.883;0.545;0.451;-0.089;-4.7;1.0;27.2;53.6;8543;2018-04-16 22:41:07:867
-1.186;-9.445;-0.199;-1.983;-9.556;0.954;0.816;0.342;-0.883;0.529;0.608;-0.098;-4.7;1.0;27.2;53.6;8553;2018-04-16 22:41:07:877
-1.186;-9.445;-0.199;-1.971;-9.553;1.018;0.805;0.05;-1.312;0.494;0.728;-0.099;-4.7;1.4;27.3;53.6;8563;2018-04-16 22:41:07:887
-1.149;-9.716;-0.48;-1.971;-9.553;1.018;0.805;0.05;-1.312;0.445;0.8;-0.086;-4.7;1.4;27.3;53.6;8573;2018-04-16 22:41:07:897
-1.109;-10.355;-0.668;-1.965;-9.549;1.057;0.844;-0.516;-1.683;0.362;0.827;-0.068;-4.7;1.7;27.3;53.6;8583;2018-04-16 22:41:07:907
-1.109;-10.355;-0.668;-1.965;-9.549;1.057;0.844;-0.516;-1.683;0.239;0.809;-0.054;-4.7;1.7;27.3;53.6;8592;2018-04-16 22:41:07:916
-1.204;-11.073;-0.673;-1.972;-9.547;1.068;0.768;-1.526;-1.741;0.239;0.809;-0.054;-4.7;2.0;27.3;53.6;8602;2018-04-16 22:41:07:926
-1.174;-11.182;-0.5;-1.972;-9.547;1.068;0.768;-1.526;-1.741;0.049;0.693;-0.015;-4.7;2.0;27.3;53.6;8612;2018-04-16 22:41:07:936
-1.174;-11.182;-0.5;-1.984;-9.547;1.043;0.87;-1.621;-1.46;-0.046;0.55;0.01;-4.9;2.3;27.3;53.6;8622;2018-04-16 22:41:07:946
-0.943;-10.967;-0.256;-1.984;-9.547;1.043;0.87;-1.621;-1.46;-0.128;0.269;0.037;-4.9;2.3;27.3;53.6;8632;2018-04-16 22:41:07:956
-0.547;-10.724;-0.03;-1.996;-9.548;1.007;1.337;-1.203;-1.142;-0.191;0.086;0.027;-4.9;2.6;27.4;53.6;8642;2018-04-16 22:41:07:966
-0.547;-10.724;-0.03;-1.996;-9.548;1.007;1.337;-1.203;-1.142;-0.191;0.086;0.027;-4.9;2.6;27.4;53.6;8652;2018-04-16 22:41:07:976
-0.393;-10.726;0.168;-1.995;-9.554;0.958;1.603;-1.172;-0.791;-0.301;-0.132;-0.001;-5.0;2.9;27.4;53.6;8662;2018-04-16 22:41:07:986
-0.272;-10.837;0.372;-1.995;-9.554;0.958;1.603;-1.172;-0.791;-0.39;-0.301;-0.035;-5.0;2.9;27.4;53.6;8672;2018-04-16 22:41:07:996
-0.272;-10.837;0.372;-1.983;-9.562;0.896;1.753;-1.339;-0.467;-0.42;-0.397;-0.059;-5.0;3.1;27.4;53.6;8682;2018-04-16 22:41:08:006
-0.207;-11.043;0.582;-1.983;-9.562;0.896;1.753;-1.339;-0.467;-0.42;-0.397;-0.059;-5.0;3.1;27.4;53.6;8692;2018-04-16 22:41:08:016
-0.632;-11.048;0.888;-1.952;-9.574;0.832;1.529;-1.514;-0.066;-0.44;-0.514;-0.148;-5.0;3.3;27.3;53.6;8702;2018-04-16 22:41:08:026
-0.632;-11.048;0.888;-1.952;-9.574;0.832;1.529;-1.514;-0.066;-0.448;-0.495;-0.29;-5.0;3.3;27.3;53.6;8712;2018-04-16 22:41:08:036
-1.179;-10.745;1.125;-1.887;-9.593;0.764;0.708;-1.152;0.361;-0.464;-0.384;-0.39;-5.0;3.5;27.3;53.6;8722;2018-04-16 22:41:08:046
-1.798;-10.174;1.265;-1.887;-9.593;0.764;0.708;-1.152;0.361;-0.494;-0.194;-0.485;-5.0;3.5;27.3;53.6;8732;2018-04-16 22:41:08:056
-1.798;-10.174;1.265;-1.789;-9.618;0.676;-0.133;-0.369;0.642;-0.535;0.06;-0.569;-5.1;3.6;27.2;53.6;8742;2018-04-16 22:41:08:066
-2.28;-9.578;1.33;-1.789;-9.618;0.676;-0.133;-0.369;0.642;-0.579;0.379;-0.624;-5.1;3.6;27.2;53.6;8752;2018-04-16 22:41:08:076
-2.843;-8.93;1.099;-1.683;-9.645;0.559;-0.947;0.491;0.643;-0.623;0.691;-0.639;-5.2;3.7;27.0;53.6;8762;2018-04-16 22:41:08:086
-2.843;-8.93;1.099;-1.683;-9.645;0.559;-0.947;0.491;0.643;-0.678;1.078;-0.626;-5.2;3.7;27.0;51.14;8772;2018-04-16 22:41:08:096
-3.522;-8.635;-0.045;-1.583;-9.67;0.399;-1.938;1.035;-0.445;-0.659;1.136;-0.613;-5.3;3.8;27.0;51.14;8783;2018-04-16 22:41:08:107
-4.41;-8.967;-1.828;-1.583;-9.67;0.399;-1.938;1.035;-0.445;-0.626;0.979;-0.575;-5.3;3.8;27.0;51.14;8793;2018-04-16 22:41:08:117
-4.41;-8.967;-1.828;-1.495;-9.689;0.231;-3.051;0.587;-2.246;-0.648;0.707;-0.487;-5.5;3.8;26.9;51.14;8803;2018-04-16 22:41:08:127
-4.766;-9.469;-2.02;-1.495;-9.689;0.231;-3.051;0.587;-2.246;-0.778;0.463;-0.378;-5.5;3.8;26.9;51.14;8813;2018-04-16 22:41:08:137
-4.745;-9.906;-1.393;-1.42;-9.703;0.065;-3.337;-0.078;-1.698;-1.004;0.32;-0.274;-5.8;3.7;26.9;51.14;8823;2018-04-16 22:41:08:147
-4.745;-9.906;-1.393;-1.42;-9.703;0.065;-3.337;-0.078;-1.698;-1.29;0.307;-0.187;-5.8;3.7;26.9;51.14;8833;2018-04-16 22:41:08:157
-4.476;-10.254;-0.336;-1.384;-9.706;-0.197;-3.092;-0.548;-0.14;-1.565;0.434;-0.111;-6.1;3.6;26.7;51.14;8843;2018-04-16 22:41:08:167
-3.985;-10.105;1.1;-1.384;-9.706;-0.197;-3.092;-0.548;-0.14;-1.769;0.678;-0.05;-6.1;3.6;26.7;51.14;8853;2018-04-16 22:41:08:177
-3.985;-10.105;1.1;-1.369;-9.694;-0.558;-2.5;-0.341;2.04;-1.845;0.946;-0.009;-6.4;3.4;26.7;51.14;8862;2018-04-16 22:41:08:186
-3.491;-9.735;2.269;-1.369;-9.694;-0.558;-2.5;-0.341;2.04;-1.708;1.065;-0.005;-6.4;3.4;26.7;51.14;8872;2018-04-16 22:41:08:196
-3.351;-9.366;2.479;-1.358;-9.67;-0.905;-2.209;0.154;3.479;-1.428;1.048;0.021;-6.6;3.2;26.8;51.14;8883;2018-04-16 22:41:08:207
-3.351;-9.366;2.479;-1.358;-9.67;-0.905;-2.209;0.154;3.479;-1.13;0.905;-0.02;-6.6;3.2;26.8;51.14;8893;2018-04-16 22:41:08:217
-3.013;-9.422;1.426;-1.348;-9.648;-1.126;-1.665;0.226;2.552;-1.13;0.905;-0.02;-7.0;2.9;26.8;51.14;8903;2018-04-16 22:41:08:227
-3.391;-10.269;1.334;-1.348;-9.648;-1.126;-1.665;0.226;2.552;-0.927;0.772;-0.098;-7.0;2.9;26.8;51.14;8913;2018-04-16 22:41:08:237
-3.391;-10.269;1.334;-1.323;-9.629;-1.304;-1.946;-0.713;2.377;-0.775;0.522;-0.021;-7.2;2.6;26.8;51.14;8923;2018-04-16 22:41:08:247
-2.591;-10.272;-0.061;-1.323;-9.629;-1.304;-1.946;-0.713;2.377;-0.705;0.208;0.046;-7.2;2.6;26.8;51.14;8933;2018-04-16 22:41:08:257
-0.826;-10.349;-1.951;-1.327;-9.608;-1.445;-0.097;-0.563;0.347;-0.738;-0.108;0.01;-7.5;2.2;26.7;51.14;8943;2018-04-16 22:41:08:267
-0.826;-10.349;-1.951;-1.327;-9.608;-1.445;-0.097;-0.563;0.347;-0.834;-0.39;-0.049;-7.5;2.2;26.7;51.14;8953;2018-04-16 22:41:08:277
0.691;-10.886;-1.857;-1.328;-9.584;-1.597;2.019;-1.302;-0.26;-0.958;-0.369;-0.097;-7.8;1.9;26.8;51.14;8963;2018-04-16 22:41:08:287
2.711;-11.216;-0.156;-1.328;-9.584;-1.597;2.019;-1.302;-0.26;-0.965;-0.026;-0.264;-7.8;1.9;26.8;51.14;8973;2018-04-16 22:41:08:297
2.711;-11.216;-0.156;-1.272;-9.56;-1.779;4.127;-1.778;1.823;-0.852;0.519;-0.508;-8.0;1.5;26.8;51.14;8983;2018-04-16 22:41:08:307
2.67;-11.412;0.121;-1.272;-9.56;-1.779;4.127;-1.778;1.823;-0.606;0.951;-0.715;-8.0;1.5;26.8;51.14;8993;2018-04-16 22:41:08:317
0.972;-11.07;-0.245;-1.101;-9.555;-1.912;2.924;-1.804;1.844;-0.316;1.118;-0.848;-8.3;1.1;26.9;51.14;9003;2018-04-16 22:41:08:327
0.972;-11.07;-0.245;-1.101;-9.555;-1.912;2.924;-1.804;1.844;-0.034;1.054;-0.908;-8.3;1.1;26.9;51.14;9013;2018-04-16 22:41:08:337
-0.909;-10.167;-1.192;-0.89;-9.572;-1.937;-0.018;-0.595;0.745;0.167;0.797;-0.874;-8.6;0.6;26.8;51.14;9023;2018-04-16 22:41:08:347
-2.301;-9.37;-1.244;-0.89;-9.572;-1.937;-0.018;-0.595;0.745;0.206;0.464;-0.817;-8.6;0.6;26.8;51.14;9033;2018-04-16 22:41:08:357
-2.301;-9.37;-1.244;-0.731;-9.593;-1.902;-1.725;0.398;0.928;0.094;0.195;-0.746;-9.0;0.1;26.8;51.14;9043;2018-04-16 22:41:08:367
-2.649;-8.797;-0.644;-0.731;-9.593;-1.902;-1.725;0.398;0.928;-0.228;-0.028;-0.691;-9.0;0.1;26.8;51.14;9053;2018-04-16 22:41:08:377
-2.611;-8.432;-0.363;-0.604;-9.598;-1.922;-2.113;1.078;1.526;-0.494;-0.06;-0.665;-9.3;-0.1;26.8;51.14;9063;2018-04-16 22:41:08:387
-2.611;-8.432;-0.363;-0.604;-9.598;-1.922;-2.113;1.078;1.526;-0.773;-0.044;-0.651;-9.3;-0.1;26.8;51.14;9073;2018-04-16 22:41:08:397
-2.312;-8.465;-1.199;-0.483;-9.579;-2.043;-1.829;1.115;0.844;-1.063;-0.057;-0.627;-9.7;-0.7;26.7;51.14;9083;2018-04-16 22:41:08:407
-1.987;-8.777;-1.696;-0.483;-9.579;-2.043;-1.829;1.115;0.844;-1.301;-0.128;-0.586;-9.7;-0.7;26.7;52.37;9092;2018-04-16 22:41:08:416
-1.987;-8.777;-1.696;-0.381;-9.531;-2.276;-1.504;0.768;0.745;-1.411;-0.123;-0.555;-9.9;-1.0;26.7;52.37;9102;2018-04-16 22:41:08:426
-1.723;-8.534;-1.117;-0.381;-9.531;-2.276;-1.504;0.768;0.745;-1.35;-0.121;-0.557;-9.9;-1.0;26.7;52.37;9112;2018-04-16 22:41:08:436
-1.899;-7.887;-1.282;-0.284;-9.471;-2.529;-1.596;1.324;1.438;-1.219;-0.061;-0.508;-10.2;-1.5;26.6;52.37;9122;2018-04-16 22:41:08:446
-1.899;-7.887;-1.282;-0.284;-9.471;-2.529;-1.596;1.324;1.438;-1.073;-0.01;-0.423;-10.2;-1.5;26.6;52.37;9132;2018-04-16 22:41:08:456
-1.972;-7.476;-1.56;-0.207;-9.416;-2.731;-1.765;1.94;1.171;-0.892;-0.05;-0.307;-10.4;-1.9;26.7;52.37;9143;2018-04-16 22:41:08:467
-1.759;-7.015;-1.366;-0.207;-9.416;-2.731;-1.765;1.94;1.171;-0.709;-0.086;-0.195;-10.4;-1.9;26.7;52.37;9153;2018-04-16 22:41:08:477
-1.759;-7.015;-1.366;-0.176;-9.378;-2.861;-1.543;2.439;1.515;-0.534;-0.098;-0.108;-10.6;-2.5;26.6;52.37;9163;2018-04-16 22:41:08:487
-1.574;-6.806;-1.396;-0.176;-9.378;-2.861;-1.543;2.439;1.515;-0.534;-0.098;-0.108;-10.6;-2.5;26.6;52.37;9173;2018-04-16 22:41:08:497
-1.074;-6.679;-1.325;-0.179;-9.357;-2.929;-1.118;2.637;1.539;-0.302;-0.137;0.016;-10.7;-2.9;26.6;52.37;9183;2018-04-16 22:41:08:507
-1.074;-6.679;-1.325;-0.179;-9.357;-2.929;-1.118;2.637;1.539;-0.092;-0.271;0.119;-10.7;-2.9;26.6;52.37;9193;2018-04-16 22:41:08:517
-0.594;-6.685;-1.152;-0.218;-9.352;-2.944;-0.376;2.667;1.792;0.044;-0.356;0.17;-10.9;-3.3;26.5;52.37;9203;2018-04-16 22:41:08:527
-0.272;-6.731;-1.322;-0.218;-9.352;-2.944;-0.376;2.667;1.792;0.17;-0.418;0.211;-10.9;-3.3;26.5;52.37;9213;2018-04-16 22:41:08:537
-0.272;-6.731;-1.322;-0.283;-9.361;-2.91;0.072;2.619;1.506;0.265;-0.467;0.266;-11.0;-3.6;26.5;52.37;9223;2018-04-16 22:41:08:547
-0.091;-6.816;-1.548;-0.283;-9.361;-2.91;0.072;2.619;1.506;0.345;-0.527;0.329;-11.0;-3.6;26.5;52.37;9233;2018-04-16 22:41:08:557
0.029;-7.047;-1.808;-0.375;-9.378;-2.842;0.369;2.471;1.095;0.403;-0.568;0.393;-11.1;-4.0;26.4;52.37;9243;2018-04-16 22:41:08:567
0.029;-7.047;-1.808;-0.375;-9.378;-2.842;0.369;2.471;1.095;0.463;-0.654;0.447;-11.1;-4.0;26.4;52.37;9253;2018-04-16 22:41:08:577
-0.152;-7.468;-2.045;-0.497;-9.4;-2.75;0.345;1.933;0.705;0.497;-0.683;0.535;-11.1;-4.3;26.4;52.37;9263;2018-04-16 22:41:08:587
-0.328;-8.106;-2.684;-0.497;-9.4;-2.75;0.345;1.933;0.705;0.497;-0.683;0.535;-11.1;-4.3;26.4;52.37;9272;2018-04-16 22:41:08:596
-0.328;-8.106;-2.684;-0.654;-9.419;-2.649;0.318;1.068;-0.237;0.485;-0.733;0.674;-11.2;-4.5;26.3;52.37;9282;2018-04-16 22:41:08:606
-0.64;-9.165;-3.433;-0.654;-9.419;-2.649;0.318;1.068;-0.237;0.392;-0.848;0.863;-11.2;-4.5;26.3;52.37;9292;2018-04-16 22:41:08:616
-0.289;-10.326;-4.336;-0.862;-9.425;-2.567;0.407;-0.526;-1.468;0.291;-0.927;0.997;-11.2;-4.7;26.3;52.37;9302;2018-04-16 22:41:08:626
-0.289;-10.326;-4.336;-0.862;-9.425;-2.567;0.407;-0.526;-1.468;0.133;-0.941;1.046;-11.2;-4.7;26.3;52.37;9312;2018-04-16 22:41:08:636
0.697;-11.467;-4.927;-1.102;-9.412;-2.526;1.799;-2.056;-2.402;-0.038;-0.882;0.92;-11.2;-4.8;26.2;52.37;9323;2018-04-16 22:41:08:647
1.749;-12.198;-5.301;-1.102;-9.412;-2.526;1.799;-2.056;-2.402;-0.248;-0.626;0.387;-11.2;-4.8;26.2;52.37;9333;2018-04-16 22:41:08:657
1.749;-12.198;-5.301;-1.246;-9.388;-2.546;3.083;-2.876;-2.818;-0.264;-0.462;-0.062;-11.1;-4.8;26.3;52.37;9343;2018-04-16 22:41:08:667
1.925;-11.818;-5.602;-1.246;-9.388;-2.546;3.083;-2.876;-2.818;-0.164;-0.346;-0.401;-11.1;-4.8;26.3;52.37;9353;2018-04-16 22:41:08:677
1.152;-10.28;-5.638;-1.22;-9.384;-2.575;2.551;-1.544;-3.045;0.0;-0.269;-0.52;-10.9;-4.9;26.4;52.37;9363;2018-04-16 22:41:08:687
1.152;-10.28;-5.638;-1.22;-9.384;-2.575;2.551;-1.544;-3.045;0.0;-0.269;-0.52;-10.9;-4.9;26.4;52.37;9373;2018-04-16 22:41:08:697
1.028;-9.452;-5.479;-1.14;-9.401;-2.548;2.168;-0.051;-2.931;0.203;-0.276;-0.481;-10.7;-4.9;26.5;52.37;9383;2018-04-16 22:41:08:707
0.611;-9.34;-4.597;-1.14;-9.401;-2.548;2.168;-0.051;-2.931;0.308;-0.36;-0.435;-10.7;-4.9;26.5;52.37;9393;2018-04-16 22:41:08:717
0.611;-9.34;-4.597;-1.08;-9.427;-2.476;1.45;-0.02;-1.945;0.404;-0.501;-0.397;-10.6;-5.0;26.7;52.37;9403;2018-04-16 22:41:08:727
-0.472;-9.886;-3.73;-1.08;-9.427;-2.476;1.45;-0.02;-1.945;0.501;-0.816;-0.274;-10.6;-5.0;26.7;59.18;9413;2018-04-16 22:41:08:737
