sep=;
acc_x;acc_y;acc_z;grav_x;grav_y;grav_z;lin_acc_x;lin_acc_y;lin_acc_z;gyro_x;gyro_y;gyro_z;mag_x;mag_y;mag_z;sound_lvl;time_ms;date_time
-0.971;2.46;9.786;0.65;2.243;9.524;-1.621;0.217;0.262;0.22;-0.746;-0.395;-4.9;-28.3;10.2;49.3;13;2018-04-16 22:36:14:427
-0.971;2.46;9.786;0.65;2.243;9.524;-1.621;0.217;0.262;0.22;-0.746;-0.395;-4.9;-28.3;10.2;49.3;23;2018-04-16 22:36:14:437
-0.539;2.334;9.896;0.734;2.282;9.509;-1.273;0.052;0.387;0.178;-0.485;-0.254;-4.6;-28.2;10.2;49.3;33;2018-04-16 22:36:14:447
-0.215;2.714;10.276;0.734;2.282;9.509;-1.273;0.052;0.387;0.154;-0.205;-0.213;-4.4;-28.2;10.3;49.3;43;2018-04-16 22:36:14:457
-0.215;2.714;10.276;0.76;2.314;9.499;-1.021;0.356;0.726;0.154;-0.205;-0.213;-4.4;-28.2;10.3;49.3;53;2018-04-16 22:36:14:467
-0.456;2.896;9.676;0.744;2.327;9.497;-1.2;0.569;0.179;0.116;0.098;-0.188;-4.2;-28.2;10.3;49.3;62;2018-04-16 22:36:14:476
-0.456;2.896;9.676;0.744;2.327;9.497;-1.2;0.569;0.179;0.116;0.098;-0.188;-4.2;-28.2;10.3;49.3;74;2018-04-16 22:36:14:488
-0.67;3.513;7.995;0.715;2.353;9.493;-1.385;1.161;-1.498;0.097;0.01;-0.183;-3.9;-28.2;10.4;49.3;83;2018-04-16 22:36:14:497
-0.461;3.439;7.983;0.789;2.379;9.481;-1.249;1.06;-1.497;0.117;-0.464;-0.203;-3.9;-28.2;10.4;49.3;93;2018-04-16 22:36:14:507
-0.461;3.439;7.983;0.789;2.379;9.481;-1.249;1.06;-1.497;0.117;-0.464;-0.203;-3.6;-28.2;10.4;49.3;103;2018-04-16 22:36:14:517
-0.48;3.365;8.259;0.875;2.405;9.467;-1.355;0.96;-1.208;0.209;-0.913;-0.246;-3.6;-28.2;10.4;49.3;113;2018-04-16 22:36:14:527
-0.372;3.099;8.792;0.875;2.405;9.467;-1.355;0.96;-1.208;0.228;-1.253;-0.237;-3.3;-28.1;10.5;49.3;123;2018-04-16 22:36:14:537
-0.372;3.099;8.792;1.091;2.456;9.431;-1.404;0.781;-0.282;0.193;-1.352;-0.181;-3.3;-28.1;10.5;49.3;133;2018-04-16 22:36:14:547
-0.151;3.031;9.631;1.091;2.456;9.431;-1.404;0.781;-0.282;0.177;-1.219;-0.173;-3.1;-28.1;10.7;49.3;143;2018-04-16 22:36:14:557
0.265;3.182;9.85;1.304;2.493;9.394;-1.195;0.565;0.332;0.177;-1.219;-0.173;-3.1;-28.1;10.7;49.3;152;2018-04-16 22:36:14:566
0.265;3.182;9.85;1.304;2.493;9.394;-1.195;0.565;0.332;0.075;-0.993;-0.162;-2.9;-28.1;10.7;49.3;163;2018-04-16 22:36:14:577
0.796;3.117;9.839;1.466;2.511;9.366;-0.67;0.606;0.473;0.049;-0.866;-0.188;-2.9;-28.1;10.7;49.3;173;2018-04-16 22:36:14:587
1.337;3.541;10.092;1.466;2.511;9.366;-0.67;0.606;0.473;0.088;-0.929;-0.193;-2.6;-28.1;10.8;49.3;183;2018-04-16 22:36:14:597
1.59;3.862;9.618;1.638;2.549;9.327;-0.195;1.132;0.643;0.429;-1.158;-0.301;-2.5;-28.1;10.8;49.3;193;2018-04-16 22:36:14:607
1.59;3.862;9.618;1.638;2.549;9.327;-0.195;1.132;0.643;0.429;-1.158;-0.301;-2.5;-28.1;10.8;49.3;203;2018-04-16 22:36:14:617
1.927;3.861;7.906;1.866;2.665;9.251;0.062;1.196;-1.346;0.593;-1.434;-0.396;-2.2;-28.0;11.1;49.3;212;2018-04-16 22:36:14:626
1.927;3.861;7.906;1.866;2.665;9.251;0.062;1.196;-1.346;0.593;-1.434;-0.396;-2.2;-28.0;11.1;49.3;222;2018-04-16 22:36:14:636
4.634;2.337;6.053;2.245;2.79;9.13;1.821;-0.752;-2.795;0.517;-2.397;-0.701;-2.1;-28.0;11.2;49.3;233;2018-04-16 22:36:14:647
4.634;2.337;6.053;2.245;2.79;9.13;1.821;-0.752;-2.795;0.517;-2.397;-0.701;-2.1;-28.0;11.2;49.3;243;2018-04-16 22:36:14:657
2.477;1.437;6.474;2.679;2.85;8.993;-0.263;-1.562;-2.459;0.082;-2.739;-1.07;-1.8;-27.8;11.4;49.3;252;2018-04-16 22:36:14:666
2.655;1.536;6.454;2.679;2.85;8.993;-0.263;-1.562;-2.459;-0.567;-2.149;-0.897;-1.5;-27.8;11.4;49.3;263;2018-04-16 22:36:14:677
2.655;1.536;6.454;2.96;2.743;8.938;-0.547;-1.103;-2.427;-1.096;-1.607;-0.744;-1.5;-27.8;11.4;49.3;273;2018-04-16 22:36:14:687
2.655;1.536;6.454;2.96;2.743;8.938;-0.547;-1.103;-2.427;-1.096;-1.607;-0.744;-1.5;-27.8;11.4;49.3;283;2018-04-16 22:36:14:697
2.655;1.536;6.454;2.96;2.743;8.938;-0.547;-1.103;-2.427;-1.096;-1.607;-0.744;-1.5;-27.8;11.4;49.3;293;2018-04-16 22:36:14:707
2.103;1.554;6.613;3.067;2.634;8.935;-0.963;-1.081;-2.322;-1.53;-1.478;-0.557;-1.1;-27.8;11.4;49.3;303;2018-04-16 22:36:14:717
2.103;1.554;6.613;3.067;2.634;8.935;-0.963;-1.081;-2.322;-1.822;-2.117;0.083;-1.1;-27.8;11.4;49.3;313;2018-04-16 22:36:14:727
2.851;2.253;5.025;3.762;1.999;8.833;-0.801;0.154;-4.195;-1.784;-2.301;0.104;-0.5;-27.8;11.4;49.9;323;2018-04-16 22:36:14:737
3.43;1.982;3.215;4.039;1.829;8.747;-0.609;0.153;-5.532;-1.695;-2.797;0.073;-0.1;-27.8;11.2;49.9;333;2018-04-16 22:36:14:747
3.703;1.439;1.378;4.039;1.829;8.747;-0.609;0.153;-5.532;-1.577;-3.608;-0.051;-0.1;-27.8;11.2;49.9;343;2018-04-16 22:36:14:757
3.703;1.439;1.378;4.658;1.567;8.486;-1.152;-0.25;-7.251;-1.577;-3.608;-0.051;0.2;-27.8;10.8;49.9;353;2018-04-16 22:36:14:767
1.984;0.602;6.193;4.989;1.464;8.315;-3.006;-0.861;-2.122;-1.443;-4.373;-0.158;0.7;-27.8;10.4;49.9;363;2018-04-16 22:36:14:777
1.984;0.602;6.193;4.989;1.464;8.315;-3.006;-0.861;-2.122;-1.443;-4.373;-0.158;0.7;-27.8;10.4;49.9;373;2018-04-16 22:36:14:787
1.984;0.602;6.193;4.989;1.464;8.315;-3.006;-0.861;-2.122;-1.443;-4.373;-0.158;0.7;-27.8;10.4;49.9;383;2018-04-16 22:36:14:797
-1.031;-1.542;6.756;5.566;1.338;7.963;-6.596;-2.88;-1.206;-0.363;-3.224;0.23;1.9;-27.9;9.0;49.9;393;2018-04-16 22:36:14:807
0.157;-5.324;4.718;5.566;1.338;7.963;-6.596;-2.88;-1.206;1.443;-4.055;1.537;2.7;-27.9;7.5;49.9;403;2018-04-16 22:36:14:817
0.453;-5.728;4.679;6.515;1.346;7.205;-6.063;-7.074;-2.525;1.795;-4.309;1.842;2.7;-27.9;7.5;49.9;413;2018-04-16 22:36:14:827
0.453;-5.728;4.679;6.515;1.346;7.205;-6.063;-7.074;-2.525;1.795;-4.309;1.842;2.6;-28.1;7.5;49.9;423;2018-04-16 22:36:14:837
1.196;-5.635;4.967;7.24;1.321;6.482;-6.044;-6.955;-1.515;2.848;-4.832;3.081;2.5;-28.7;6.7;49.9;433;2018-04-16 22:36:14:847
3.069;-5.928;-0.208;7.24;1.321;6.482;-6.044;-6.955;-1.515;2.512;-4.57;4.043;2.5;-28.2;7.8;49.9;443;2018-04-16 22:36:14:857
3.069;-5.928;-0.208;7.915;1.0;5.703;-4.232;-7.929;-5.974;2.512;-4.57;4.043;2.5;-28.2;7.8;49.9;453;2018-04-16 22:36:14:867
4.936;-9.785;2.558;7.915;1.0;5.703;-4.232;-7.929;-5.974;1.253;-5.566;4.743;1.4;-28.6;8.1;49.9;463;2018-04-16 22:36:14:877
4.936;-9.785;2.558;8.57;0.25;4.761;-2.923;-10.082;-1.712;0.872;-5.62;5.388;1.4;-28.6;8.1;49.9;474;2018-04-16 22:36:14:888
7.852;-9.814;4.511;8.797;-0.205;4.328;-0.946;-9.609;0.183;0.648;-5.47;6.078;1.2;-28.2;7.2;49.9;484;2018-04-16 22:36:14:898
7.852;-9.814;4.511;8.797;-0.205;4.328;-0.946;-9.609;0.183;0.64;-5.655;7.288;1.2;-28.2;7.2;49.9;493;2018-04-16 22:36:14:907
13.369;-9.99;8.896;9.115;-1.412;3.332;4.255;-8.578;5.564;0.896;-5.499;7.72;0.3;-28.4;6.7;49.9;503;2018-04-16 22:36:14:917
16.619;-9.725;10.392;9.141;-2.161;2.82;7.479;-7.565;7.572;1.068;-5.337;7.856;-0.7;-28.5;6.2;49.9;513;2018-04-16 22:36:14:927
16.619;-9.725;10.392;9.141;-2.161;2.82;7.479;-7.565;7.572;1.068;-5.337;7.856;-0.7;-28.5;6.2;49.9;522;2018-04-16 22:36:14:936
21.828;-7.562;11.12;8.929;-3.466;2.104;12.899;-4.096;9.015;1.783;-4.161;7.432;-4.9;-28.3;7.5;49.9;533;2018-04-16 22:36:14:947
21.828;-7.562;11.12;8.929;-3.466;2.104;12.899;-4.096;9.015;1.783;-4.161;7.432;-4.9;-28.3;7.5;49.9;543;2018-04-16 22:36:14:957
24.038;-4.612;9.317;8.558;-4.465;1.73;15.48;-0.148;7.587;2.689;-3.052;5.868;-8.1;-27.0;7.8;49.9;552;2018-04-16 22:36:14:966
23.402;-4.518;7.986;8.558;-4.465;1.73;15.48;-0.148;7.587;3.459;-2.534;4.44;-10.1;-25.8;8.3;49.9;563;2018-04-16 22:36:14:977
23.402;-4.518;7.986;8.219;-5.091;1.644;14.712;0.261;5.763;3.459;-2.534;4.44;-10.1;-25.8;8.3;49.9;573;2018-04-16 22:36:14:987
21.895;-5.137;5.482;8.084;-5.285;1.699;13.811;0.148;3.782;4.049;-1.831;3.449;-12.2;-24.7;9.4;49.9;583;2018-04-16 22:36:14:997
21.895;-5.137;5.482;8.084;-5.285;1.699;13.811;0.148;3.782;3.874;-0.98;2.764;-12.2;-24.7;9.4;49.9;592;2018-04-16 22:36:15:006
20.121;-3.874;2.283;7.818;-5.586;1.961;12.598;1.273;0.835;3.874;-0.98;2.764;-12.2;-24.7;9.4;49.9;602;2018-04-16 22:36:15:016
20.121;-3.874;2.283;7.69;-5.687;2.166;12.177;2.584;-0.377;3.448;-0.304;2.282;-13.6;-22.5;12.6;49.9;612;2018-04-16 22:36:15:026
19.619;-2.597;-1.556;7.601;-5.732;2.354;12.019;3.136;-3.91;2.737;0.734;1.483;-14.4;-21.6;15.3;49.9;623;2018-04-16 22:36:15:037
19.619;-2.597;-1.556;7.601;-5.732;2.354;12.019;3.136;-3.91;2.737;0.734;1.483;-14.4;-21.6;15.3;49.9;633;2018-04-16 22:36:15:047
15.358;-2.413;-3.478;7.44;-5.757;2.771;7.918;3.344;-6.249;1.371;1.803;0.561;-15.5;-19.5;15.0;49.72;643;2018-04-16 22:36:15:057
14.064;-1.949;-3.041;7.337;-5.781;2.986;6.727;3.832;-6.027;0.308;2.442;0.424;-15.5;-19.5;15.0;49.72;653;2018-04-16 22:36:15:067
12.388;-1.639;-0.856;7.337;-5.781;2.986;6.727;3.832;-6.027;-0.648;2.023;0.232;-17.8;-19.5;14.5;49.72;663;2018-04-16 22:36:15:077
12.388;-1.639;-0.856;7.193;-5.851;3.194;5.468;4.69;-1.74;-0.648;2.023;0.232;-17.8;-19.5;14.5;49.72;673;2018-04-16 22:36:15:087
12.899;-0.332;3.768;7.179;-5.857;3.214;5.72;5.525;0.555;-0.349;0.601;-0.055;-17.8;-19.1;13.1;49.72;682;2018-04-16 22:36:15:096
12.482;0.017;3.274;7.179;-5.857;3.214;5.72;5.525;0.555;0.927;-0.263;-0.423;-17.8;-19.1;13.1;49.72;692;2018-04-16 22:36:15:106
12.482;0.017;3.274;7.245;-5.737;3.281;4.918;5.704;-0.507;1.39;-0.485;-0.577;-18.0;-18.0;15.2;49.72;703;2018-04-16 22:36:15:117
11.341;0.042;0.09;7.245;-5.737;3.281;4.918;5.704;-0.507;1.39;-0.485;-0.577;-18.0;-18.0;15.2;49.72;712;2018-04-16 22:36:15:126
10.355;0.972;-1.708;7.465;-5.432;3.308;3.212;6.055;-4.639;2.32;-1.523;-1.081;-17.7;-18.3;14.7;49.72;723;2018-04-16 22:36:15:137
10.355;0.972;-1.708;7.658;-5.22;3.207;2.591;6.472;-5.081;2.316;-2.803;-1.515;-16.5;-18.2;15.6;49.72;733;2018-04-16 22:36:15:147
9.797;0.98;-1.02;7.658;-5.22;3.207;2.591;6.472;-5.081;2.042;-3.196;-1.78;-16.5;-18.2;15.6;49.72;743;2018-04-16 22:36:15:157
8.678;0.687;-1.644;8.05;-4.796;2.893;0.628;5.484;-4.536;1.653;-3.15;-1.779;-15.9;-18.4;17.6;49.72;752;2018-04-16 22:36:15:166
9.266;2.04;-1.76;8.05;-4.796;2.893;0.628;5.484;-4.536;1.181;-3.129;-1.779;-15.1;-17.6;18.4;49.72;763;2018-04-16 22:36:15:177
9.266;2.04;-1.76;8.403;-4.402;2.487;1.33;6.41;-3.98;1.181;-3.129;-1.779;-15.1;-17.6;18.4;49.72;773;2018-04-16 22:36:15:187
9.799;0.071;-0.88;8.555;-4.223;2.269;1.245;4.294;-3.148;0.7;-2.997;-1.897;-13.8;-18.8;19.3;49.72;783;2018-04-16 22:36:15:197
9.799;0.071;-0.88;8.555;-4.223;2.269;1.245;4.294;-3.148;0.7;-2.997;-1.897;-13.8;-18.8;19.3;49.72;793;2018-04-16 22:36:15:207
7.043;-3.089;1.093;8.802;-3.896;1.875;-1.759;0.808;-0.783;-0.456;-1.847;-1.847;-12.1;-17.3;20.2;49.72;802;2018-04-16 22:36:15:216
3.718;-4.463;2.685;8.802;-3.896;1.875;-1.759;0.808;-0.783;-0.672;-1.366;-1.516;-12.1;-17.3;20.2;49.72;813;2018-04-16 22:36:15:227
3.718;-4.463;2.685;8.944;-3.689;1.6;-5.166;-0.703;0.902;-0.616;-1.137;-0.832;-11.7;-19.0;20.5;49.72;823;2018-04-16 22:36:15:237
4.717;-2.926;1.964;8.993;-3.626;1.463;-4.277;0.7;0.501;-0.512;-1.178;-0.732;-11.3;-17.6;20.5;49.72;835;2018-04-16 22:36:15:249
4.717;-2.926;1.964;8.993;-3.626;1.463;-4.277;0.7;0.501;-0.512;-1.178;-0.732;-11.3;-17.6;20.5;49.72;843;2018-04-16 22:36:15:257
6.95;0.013;0.071;9.106;-3.434;1.205;0.055;5.965;-3.045;-0.033;-1.315;-0.914;-10.9;-18.6;21.1;49.72;853;2018-04-16 22:36:15:267
6.95;0.013;0.071;9.106;-3.434;1.205;0.055;5.965;-3.045;-0.033;-1.315;-0.914;-10.9;-18.6;21.1;49.72;863;2018-04-16 22:36:15:277
6.95;0.013;0.071;9.106;-3.434;1.205;0.055;5.965;-3.045;-0.033;-1.315;-0.914;-10.9;-18.6;21.1;49.72;873;2018-04-16 22:36:15:287
6.95;0.013;0.071;9.106;-3.434;1.205;0.055;5.965;-3.045;-0.033;-1.315;-0.914;-10.9;-18.6;21.1;49.72;883;2018-04-16 22:36:15:297
6.95;0.013;0.071;9.106;-3.434;1.205;0.055;5.965;-3.045;-0.033;-1.315;-0.914;-10.9;-18.6;21.1;49.72;892;2018-04-16 22:36:15:306
6.95;0.013;0.071;9.106;-3.434;1.205;0.055;5.965;-3.045;-0.033;-1.315;-0.914;-10.9;-18.6;21.1;49.72;903;2018-04-16 22:36:15:317
6.95;0.013;0.071;9.106;-3.434;1.205;0.055;5.965;-3.045;-0.033;-1.315;-0.914;-10.9;-18.6;21.1;49.72;913;2018-04-16 22:36:15:327
6.95;0.013;0.071;9.106;-3.434;1.205;0.055;5.965;-3.045;-0.033;-1.315;-0.914;-10.9;-18.6;21.1;49.72;923;2018-04-16 22:36:15:337
6.95;0.013;0.071;9.106;-3.434;1.205;0.055;5.965;-3.045;-0.033;-1.315;-0.914;-10.9;-18.6;21.1;49.72;933;2018-04-16 22:36:15:347
6.95;0.013;0.071;9.106;-3.434;1.205;0.055;5.965;-3.045;-0.033;-1.315;-0.914;-10.9;-18.6;21.1;49.72;942;2018-04-16 22:36:15:356
6.95;0.013;0.071;9.106;-3.434;1.205;0.055;5.965;-3.045;-0.033;-1.315;-0.914;-10.9;-18.6;21.1;49.72;953;2018-04-16 22:36:15:367
6.95;0.013;0.071;9.106;-3.434;1.205;0.055;5.965;-3.045;-0.033;-1.315;-0.914;-10.9;-18.6;21.1;49.72;962;2018-04-16 22:36:15:376
6.95;0.013;0.071;9.106;-3.434;1.205;0.055;5.965;-3.045;-0.033;-1.315;-0.914;-10.9;-18.6;21.1;49.72;972;2018-04-16 22:36:15:386
6.95;0.013;0.071;9.106;-3.434;1.205;0.055;5.965;-3.045;-0.033;-1.315;-0.914;-10.9;-18.6;21.1;49.72;982;2018-04-16 22:36:15:396
6.95;0.013;0.071;9.106;-3.434;1.205;0.055;5.965;-3.045;-0.033;-1.315;-0.914;-10.9;-18.6;21.1;49.72;993;2018-04-16 22:36:15:407
6.95;0.013;0.071;9.106;-3.434;1.205;0.055;5.965;-3.045;-0.033;-1.315;-0.914;-10.9;-18.6;21.1;49.72;1002;2018-04-16 22:36:15:416
6.95;0.013;0.071;9.106;-3.434;1.205;0.055;5.965;-3.045;-0.033;-1.315;-0.914;-10.9;-18.6;21.1;49.72;1016;2018-04-16 22:36:15:430
6.95;0.013;0.071;9.106;-3.434;1.205;0.055;5.965;-3.045;-0.033;-1.315;-0.914;-10.9;-18.6;21.1;49.72;1023;2018-04-16 22:36:15:437
6.95;0.013;0.071;9.106;-3.434;1.205;0.055;5.965;-3.045;-0.033;-1.315;-0.914;-10.9;-18.6;21.1;49.72;1033;2018-04-16 22:36:15:447
10.233;3.434;1.563;9.273;-3.065;0.889;0.458;4.776;1.656;0.298;-1.916;-1.872;-10.6;-18.6;20.3;49.72;1043;2018-04-16 22:36:15:457
10.233;3.434;1.563;9.273;-3.065;0.889;0.458;4.776;1.656;0.298;-1.916;-1.872;-10.6;-18.6;20.3;49.72;1054;2018-04-16 22:36:15:468
12.097;-7.949;-3.261;7.294;-6.359;-1.593;4.803;-1.59;-1.668;-0.859;-1.577;8.498;-10.6;-18.6;20.3;49.72;1062;2018-04-16 22:36:15:476
8.341;-7.894;-0.491;6.607;-7.035;-1.742;1.735;-0.859;1.251;-0.342;-1.631;8.972;-6.2;-17.2;24.0;49.72;1076;2018-04-16 22:36:15:490
8.341;-7.894;-0.491;6.607;-7.035;-1.742;1.735;-0.859;1.251;1.339;-1.003;9.131;-6.1;-16.9;23.2;49.72;1082;2018-04-16 22:36:15:496
3.488;-8.355;-0.441;5.169;-8.169;-1.65;-1.68;-0.186;1.21;1.339;-1.003;9.131;-6.1;-16.9;23.2;49.72;1092;2018-04-16 22:36:15:506
3.488;-8.355;-0.441;5.169;-8.169;-1.65;-1.68;-0.186;1.21;2.933;-1.706;9.617;-6.5;-16.5;23.4;49.72;1103;2018-04-16 22:36:15:517
2.931;-5.875;2.071;3.435;-9.104;-1.223;-0.504;3.228;3.294;3.708;-1.911;9.776;-7.1;-15.6;24.0;49.32;1113;2018-04-16 22:36:15:527
2.014;-4.889;1.132;3.435;-9.104;-1.223;-0.504;3.228;3.294;4.138;-1.334;9.515;-7.1;-15.6;24.0;49.32;1123;2018-04-16 22:36:15:537
2.014;-4.889;1.132;1.661;-9.653;-0.485;0.267;5.114;0.22;4.138;-0.651;8.989;-9.6;-12.0;23.7;49.32;1132;2018-04-16 22:36:15:546
1.423;-3.521;-1.428;1.661;-9.653;-0.485;0.267;5.114;0.22;4.138;-0.651;8.989;-9.6;-12.0;23.7;49.32;1143;2018-04-16 22:36:15:557
0.968;-2.252;0.304;0.021;-9.805;0.169;0.947;7.553;0.135;3.034;-0.922;8.052;-11.3;-7.3;26.2;49.32;1153;2018-04-16 22:36:15:567
0.968;-2.252;0.304;0.021;-9.805;0.169;0.947;7.553;0.135;1.015;0.056;6.583;-11.3;-7.3;26.2;49.32;1163;2018-04-16 22:36:15:577
0.061;-1.645;-0.322;-1.265;-9.718;0.362;1.326;8.073;-0.684;1.015;0.056;6.583;-12.4;-3.1;25.0;49.32;1173;2018-04-16 22:36:15:587
0.721;-0.5;-3.432;-1.265;-9.718;0.362;1.326;8.073;-0.684;-0.325;-0.235;5.807;-12.4;-3.1;25.0;49.32;1183;2018-04-16 22:36:15:597
0.721;-0.5;-3.432;-2.321;-9.523;0.31;3.174;9.176;-3.99;-0.637;-1.883;5.274;-12.9;-1.5;24.8;49.32;1192;2018-04-16 22:36:15:606
1.045;-0.43;-3.328;-2.321;-9.523;0.31;3.174;9.176;-3.99;-1.145;-4.326;4.309;-12.9;-1.5;24.8;49.32;1202;2018-04-16 22:36:15:616
0.934;-1.118;-1.839;-3.112;-9.294;0.329;4.189;8.423;-2.781;-1.437;-5.404;3.84;-11.9;-0.4;28.0;49.32;1212;2018-04-16 22:36:15:626
0.934;-1.118;-1.839;-3.112;-9.294;0.329;4.189;8.423;-2.781;-1.586;-6.181;3.511;-11.9;-0.4;28.0;49.32;1223;2018-04-16 22:36:15:637
-3.64;-16.694;3.551;-3.696;-9.072;0.455;0.056;-7.622;3.096;-1.544;-6.36;3.157;-10.7;-1.3;26.1;49.32;1232;2018-04-16 22:36:15:646
-12.492;-39.185;16.012;-3.696;-9.072;0.455;0.056;-7.622;3.096;-2.294;-6.583;0.768;-10.7;-1.3;26.1;49.32;1242;2018-04-16 22:36:15:656
-12.492;-39.185;16.012;-3.691;-9.074;0.463;-17.529;-30.111;27.779;-2.294;-6.583;0.768;-5.4;-1.1;25.4;49.32;1253;2018-04-16 22:36:15:667
-20.713;-39.185;23.976;-3.691;-9.074;0.463;-17.529;-30.111;27.779;-3.002;-0.673;-2.302;-5.4;-1.1;25.4;49.32;1262;2018-04-16 22:36:15:676
-6.264;-19.662;3.609;-3.407;-9.196;-0.026;-4.901;-15.263;6.935;-1.559;2.828;-0.941;-4.9;-2.2;26.6;49.32;1273;2018-04-16 22:36:15:687
-6.264;-19.662;3.609;-3.407;-9.196;-0.026;-4.901;-15.263;6.935;-0.727;3.719;-0.742;-4.9;-2.2;26.6;49.32;1283;2018-04-16 22:36:15:697
-2.452;-7.803;-7.21;-3.257;-9.241;-0.399;0.805;1.439;-6.811;0.112;2.544;-0.722;-6.0;-2.4;29.1;49.32;1293;2018-04-16 22:36:15:707
-1.263;-2.701;-4.828;-3.257;-9.241;-0.399;0.805;1.439;-6.811;3.296;-3.059;-0.745;-6.0;-2.4;29.1;49.32;1303;2018-04-16 22:36:15:717
-1.263;-2.701;-4.828;-3.119;-9.291;0.358;1.338;5.959;-4.643;4.96;-6.635;-0.748;-6.1;-0.8;27.2;49.32;1312;2018-04-16 22:36:15:726
-2.233;-2.673;-12.389;-3.119;-9.291;0.358;1.338;5.959;-4.643;4.435;-7.329;-0.724;-6.1;-0.8;27.2;49.32;1322;2018-04-16 22:36:15:736
-7.399;-7.032;-15.196;-2.84;-9.242;1.64;-2.555;5.037;-25.183;1.333;-5.373;-0.393;-3.8;1.0;27.5;49.32;1333;2018-04-16 22:36:15:747
-7.399;-7.032;-15.196;-2.84;-9.242;1.64;-2.555;5.037;-25.183;-0.98;-2.518;0.296;-3.8;1.0;27.5;49.32;1343;2018-04-16 22:36:15:757
-6.087;-8.618;-0.869;-2.753;-9.247;1.753;-3.334;0.629;-2.623;-2.166;-0.203;0.654;-1.7;2.0;28.4;49.32;1353;2018-04-16 22:36:15:767
-3.715;-9.099;4.172;-2.753;-9.247;1.753;-3.334;0.629;-2.623;-2.582;1.252;0.522;-1.7;2.0;28.4;49.32;1363;2018-04-16 22:36:15:777
-3.715;-9.099;4.172;-2.887;-9.292;1.222;-0.721;-0.285;4.703;-2.391;2.292;0.285;-0.3;1.3;27.6;49.32;1372;2018-04-16 22:36:15:786
-3.986;-10.493;7.357;-2.887;-9.292;1.222;-0.721;-0.285;4.703;-1.825;3.273;0.164;-0.3;1.3;27.6;49.32;1382;2018-04-16 22:36:15:796
-3.973;-10.613;5.582;-2.98;-9.317;0.698;-0.993;-1.297;4.884;-1.186;3.824;0.126;-1.5;-0.9;30.2;49.32;1393;2018-04-16 22:36:15:807
-3.106;-10.319;1.07;-2.98;-9.317;0.698;-0.993;-1.297;4.884;-0.32;3.384;0.144;-1.5;-0.9;30.2;49.32;1403;2018-04-16 22:36:15:817
-2.49;-8.881;0.399;-3.042;-9.312;0.444;0.437;-0.336;0.301;0.458;2.529;0.147;-3.5;-0.8;29.4;49.32;1413;2018-04-16 22:36:15:827
-2.49;-8.881;0.399;-3.042;-9.312;0.444;0.437;-0.336;0.301;0.754;2.018;0.049;-3.5;-0.8;29.4;62.58;1423;2018-04-16 22:36:15:837
-2.846;-8.775;-0.007;-3.07;-9.303;0.455;0.224;0.528;-0.462;0.786;1.697;0.048;-3.8;-0.5;31.3;62.58;1433;2018-04-16 22:36:15:847
-2.522;-8.837;-0.68;-3.07;-9.303;0.455;0.224;0.528;-0.462;0.71;1.394;0.13;-3.8;-0.5;31.3;62.58;1443;2018-04-16 22:36:15:857
-2.522;-8.837;-0.68;-3.104;-9.289;0.491;0.711;0.396;-1.279;0.563;1.103;0.17;-4.6;-0.2;30.8;62.58;1452;2018-04-16 22:36:15:866
-2.23;-9.183;-0.838;-3.104;-9.289;0.491;0.711;0.396;-1.279;0.563;1.103;0.17;-4.6;-0.2;30.8;62.58;1462;2018-04-16 22:36:15:876
-2.326;-9.777;-0.806;-3.139;-9.277;0.495;0.83;-0.311;-1.318;0.282;0.739;0.186;-5.0;0.2;29.9;62.58;1472;2018-04-16 22:36:15:886
-2.326;-9.777;-0.806;-3.139;-9.277;0.495;0.83;-0.311;-1.318;0.012;0.442;0.268;-5.0;0.2;29.9;62.58;1482;2018-04-16 22:36:15:896
-2.108;-9.929;-0.783;-3.187;-9.263;0.461;1.079;-0.666;-1.244;-0.128;0.224;0.31;-4.9;0.5;30.5;62.58;1492;2018-04-16 22:36:15:906
-1.676;-9.859;-1.021;-3.187;-9.263;0.461;1.079;-0.666;-1.244;-0.128;0.224;0.31;-4.9;0.5;30.5;62.58;1503;2018-04-16 22:36:15:917
-1.676;-9.859;-1.021;-3.235;-9.247;0.437;1.748;-0.553;-1.36;-0.11;-0.375;0.326;-4.7;0.2;30.3;62.58;1512;2018-04-16 22:36:15:926
-1.402;-9.659;-0.509;-3.235;-9.247;0.437;1.748;-0.553;-1.36;0.046;-1.03;0.219;-4.7;0.2;30.3;62.58;1522;2018-04-16 22:36:15:936
-1.674;-9.518;0.047;-3.25;-9.239;0.502;1.608;-0.332;-0.604;0.072;-1.223;0.161;-3.7;0.2;29.9;62.58;1533;2018-04-16 22:36:15:947
-1.674;-9.518;0.047;-3.25;-9.239;0.502;1.608;-0.332;-0.604;0.071;-1.264;0.144;-3.7;0.2;29.9;62.58;1543;2018-04-16 22:36:15:957
-1.367;-9.226;0.127;-3.248;-9.234;0.593;1.881;0.008;-0.466;0.093;-1.234;0.106;-3.5;0.2;30.0;62.58;1552;2018-04-16 22:36:15:966
-1.332;-9.233;0.007;-3.248;-9.234;0.593;1.881;0.008;-0.466;0.154;-1.179;0.045;-3.5;0.2;30.0;62.58;1563;2018-04-16 22:36:15:977
-1.853;-9.351;-0.157;-3.229;-9.234;0.694;1.814;-0.058;-0.757;0.254;-1.082;-0.013;-3.5;0.3;30.3;62.58;1573;2018-04-16 22:36:15:987
-1.853;-9.351;-0.157;-3.229;-9.234;0.694;1.814;-0.058;-0.757;0.343;-0.926;-0.1;-3.5;0.3;30.3;62.58;1583;2018-04-16 22:36:15:997
-2.444;-9.524;-0.176;-3.193;-9.237;0.805;0.748;-0.287;-0.981;0.343;-0.528;-0.123;-3.4;0.4;30.3;62.58;1592;2018-04-16 22:36:16:006
-2.958;-9.507;-0.031;-3.193;-9.237;0.805;0.748;-0.287;-0.981;0.22;-0.182;-0.109;-3.4;0.4;30.3;62.58;1603;2018-04-16 22:36:16:017
-3.067;-9.36;0.385;-3.164;-9.241;0.871;0.171;-0.242;-0.828;0.031;0.203;-0.103;-3.1;0.5;30.6;62.58;1613;2018-04-16 22:36:16:027
-3.067;-9.36;0.385;-3.164;-9.241;0.871;0.171;-0.242;-0.828;-0.169;0.607;-0.097;-3.1;0.5;30.6;62.58;1622;2018-04-16 22:36:16:036
-3.195;-9.311;0.633;-3.155;-9.25;0.812;-0.04;-0.061;-0.179;-0.314;0.963;-0.068;-3.1;0.5;30.8;62.58;1633;2018-04-16 22:36:16:047
-3.164;-9.122;0.412;-3.155;-9.25;0.812;-0.04;-0.061;-0.179;-0.368;1.189;-0.044;-3.1;0.5;30.8;62.58;1643;2018-04-16 22:36:16:057
-3.164;-9.122;0.412;-3.164;-9.258;0.669;-0.064;0.112;-0.389;-0.33;1.232;-0.045;-3.3;0.4;30.9;62.58;1652;2018-04-16 22:36:16:066
-3.297;-9.213;0.043;-3.164;-9.258;0.669;-0.064;0.112;-0.389;-0.198;1.102;-0.031;-3.3;0.4;30.9;62.58;1662;2018-04-16 22:36:16:076
-3.141;-9.221;-0.115;-3.173;-9.262;0.561;0.031;0.041;-0.676;-0.022;0.848;-0.015;-3.6;0.3;31.0;62.58;1673;2018-04-16 22:36:16:087
-2.79;-9.391;0.051;-3.173;-9.262;0.561;0.031;0.041;-0.676;0.098;0.613;0.002;-3.6;0.3;31.0;62.58;1683;2018-04-16 22:36:16:097
-2.79;-9.391;0.051;-3.176;-9.263;0.533;0.523;-0.168;-0.417;0.128;0.473;0.006;-3.9;0.3;31.0;62.58;1692;2018-04-16 22:36:16:106
-2.501;-9.527;0.141;-3.176;-9.263;0.533;0.523;-0.168;-0.417;0.09;0.386;-0.004;-3.9;0.3;31.0;62.58;1702;2018-04-16 22:36:16:116
-2.412;-9.588;0.044;-3.173;-9.264;0.521;0.761;-0.323;-0.476;0.028;0.299;0.001;-4.1;0.4;31.1;62.58;1713;2018-04-16 22:36:16:127
-2.212;-9.491;-0.123;-3.173;-9.264;0.521;0.761;-0.323;-0.476;-0.051;0.183;0.007;-4.1;0.4;31.1;66.74;1723;2018-04-16 22:36:16:137
-2.212;-9.491;-0.123;-3.167;-9.268;0.494;0.976;-0.213;-0.662;-0.051;0.183;0.007;-4.2;0.4;31.1;66.74;1732;2018-04-16 22:36:16:146
-2.166;-9.419;-0.312;-3.167;-9.268;0.494;0.976;-0.213;-0.662;-0.132;-0.073;-0.004;-4.2;0.4;31.1;66.74;1743;2018-04-16 22:36:16:157
-2.361;-9.379;-0.206;-3.155;-9.273;0.474;0.884;-0.122;-0.77;-0.132;-0.313;-0.01;-4.3;0.4;31.1;66.74;1752;2018-04-16 22:36:16:166
-2.361;-9.379;-0.206;-3.155;-9.273;0.474;0.884;-0.122;-0.77;-0.045;-0.689;-0.021;-4.3;0.4;31.1;66.74;1762;2018-04-16 22:36:16:176
-2.672;-9.336;0.066;-3.139;-9.277;0.505;0.467;-0.059;-0.439;0.022;-0.847;-0.021;-4.2;0.5;31.2;66.74;1772;2018-04-16 22:36:16:186
-2.886;-9.286;0.267;-3.139;-9.277;0.505;0.467;-0.059;-0.439;0.072;-0.903;-0.018;-4.2;0.5;31.2;66.74;1783;2018-04-16 22:36:16:197
-3.1;-9.249;0.3;-3.125;-9.278;0.571;0.149;0.004;-0.266;0.1;-0.88;-0.015;-4.2;0.5;31.1;66.74;1793;2018-04-16 22:36:16:207
-3.1;-9.249;0.3;-3.125;-9.278;0.571;0.149;0.004;-0.266;0.115;-0.786;-0.007;-4.2;0.5;31.1;66.74;1803;2018-04-16 22:36:16:217
-3.166;-9.258;0.254;-3.114;-9.277;0.638;-0.052;0.019;-0.384;0.119;-0.649;-0.001;-4.1;0.5;31.0;66.74;1813;2018-04-16 22:36:16:227
-3.178;-9.284;0.107;-3.114;-9.277;0.638;-0.052;0.019;-0.384;0.111;-0.479;0.007;-4.1;0.5;31.0;66.74;1823;2018-04-16 22:36:16:237
-3.178;-9.284;0.107;-3.11;-9.275;0.681;-0.037;-0.01;-0.614;0.094;-0.286;0.015;-3.9;0.5;30.9;66.74;1832;2018-04-16 22:36:16:246
-2.998;-9.284;0.036;-3.11;-9.275;0.681;-0.037;-0.01;-0.614;0.06;-0.084;0.02;-3.9;0.5;30.9;66.74;1843;2018-04-16 22:36:16:257
-2.758;-9.278;-0.067;-3.111;-9.274;0.69;0.285;-0.006;-0.72;0.021;0.112;0.016;-3.8;0.6;31.1;66.74;1852;2018-04-16 22:36:16:266
-2.758;-9.278;-0.067;-3.111;-9.274;0.69;0.285;-0.006;-0.72;-0.038;0.28;0.006;-3.8;0.6;31.1;66.74;1862;2018-04-16 22:36:16:276
-2.6;-9.337;-0.086;-3.113;-9.276;0.661;0.513;-0.061;-0.747;-0.067;0.453;0.0;-3.8;0.6;31.1;66.74;1872;2018-04-16 22:36:16:286
-2.57;-9.418;-0.023;-3.113;-9.276;0.661;0.513;-0.061;-0.747;-0.086;0.507;-0.011;-3.8;0.6;31.1;66.74;1882;2018-04-16 22:36:16:296
-2.626;-9.396;0.037;-3.113;-9.28;0.609;0.545;-0.138;-0.62;-0.093;0.522;-0.023;-3.8;0.7;31.2;66.74;1893;2018-04-16 22:36:16:307
-2.626;-9.396;0.037;-3.113;-9.28;0.609;0.545;-0.138;-0.62;-0.089;0.496;-0.032;-3.8;0.7;31.2;66.74;1903;2018-04-16 22:36:16:317
-2.702;-9.395;0.043;-3.109;-9.284;0.557;0.407;-0.111;-0.513;-0.076;0.436;-0.038;-3.8;0.7;31.2;66.74;1912;2018-04-16 22:36:16:326
-2.796;-9.319;0.043;-3.109;-9.284;0.557;0.407;-0.111;-0.513;-0.054;0.348;-0.037;-3.8;0.7;31.2;66.74;1922;2018-04-16 22:36:16:336
-2.796;-9.319;0.043;-3.102;-9.288;0.521;0.293;-0.014;-0.478;-0.023;0.239;-0.034;-3.9;0.7;31.2;66.74;1932;2018-04-16 22:36:16:346
-2.84;-9.282;0.043;-3.102;-9.288;0.521;0.293;-0.014;-0.478;0.004;0.115;-0.027;-3.9;0.7;31.2;66.74;1942;2018-04-16 22:36:16:356
-2.897;-9.33;0.037;-3.096;-9.291;0.511;0.203;-0.013;-0.469;0.033;-0.005;-0.022;-4.0;0.6;31.2;66.74;1952;2018-04-16 22:36:16:366
-2.897;-9.33;0.037;-3.096;-9.291;0.511;0.203;-0.013;-0.469;0.054;-0.117;-0.016;-4.0;0.6;31.2;66.74;1963;2018-04-16 22:36:16:377
-2.873;-9.327;0.011;-3.091;-9.292;0.523;0.218;-0.034;-0.512;0.07;-0.208;-0.009;-4.0;0.5;31.2;66.74;1972;2018-04-16 22:36:16:386
-2.774;-9.303;-0.037;-3.091;-9.292;0.523;0.218;-0.034;-0.512;0.082;-0.272;0.0;-4.0;0.5;31.2;66.74;1982;2018-04-16 22:36:16:396
-2.774;-9.303;-0.037;-3.085;-9.293;0.549;0.348;-0.02;-0.61;0.086;-0.316;-0.001;-4.0;0.5;31.3;66.74;1992;2018-04-16 22:36:16:406
-2.683;-9.305;-0.097;-3.085;-9.293;0.549;0.348;-0.02;-0.61;0.082;-0.324;-0.002;-4.0;0.5;31.3;66.74;2002;2018-04-16 22:36:16:416
-2.612;-9.34;-0.129;-3.077;-9.293;0.577;0.444;-0.034;-0.686;0.075;-0.304;0.0;-4.0;0.6;31.3;66.74;2013;2018-04-16 22:36:16:427
-2.612;-9.34;-0.129;-3.077;-9.293;0.577;0.444;-0.034;-0.686;0.057;-0.254;-0.009;-4.0;0.6;31.3;42.44;2023;2018-04-16 22:36:16:437
-2.573;-9.364;-0.109;-3.068;-9.295;0.595;0.496;-0.068;-0.704;0.035;-0.18;-0.015;-3.9;0.6;31.3;42.44;2033;2018-04-16 22:36:16:447
-2.628;-9.37;-0.083;-3.068;-9.295;0.595;0.496;-0.068;-0.704;0.01;-0.089;-0.023;-3.9;0.6;31.3;42.44;2043;2018-04-16 22:36:16:457
-2.735;-9.331;-0.044;-3.059;-9.298;0.595;0.406;-0.063;-0.647;-0.011;0.011;-0.034;-3.8;0.6;31.2;42.44;2053;2018-04-16 22:36:16:467
-2.735;-9.331;-0.044;-3.059;-9.298;0.595;0.406;-0.063;-0.647;-0.032;0.108;-0.035;-3.8;0.6;31.2;42.44;2063;2018-04-16 22:36:16:477
-2.829;-9.286;-0.025;-3.05;-9.302;0.575;0.253;-0.005;-0.6;-0.042;0.183;-0.039;-3.7;0.6;31.2;42.44;2072;2018-04-16 22:36:16:486
-2.829;-9.286;-0.025;-3.05;-9.302;0.575;0.253;-0.005;-0.6;-0.044;0.236;-0.038;-3.7;0.6;31.2;42.44;2083;2018-04-16 22:36:16:497
-2.842;-9.298;0.0;-3.044;-9.306;0.546;0.202;0.008;-0.546;-0.043;0.264;-0.032;-3.7;0.6;31.2;42.44;2093;2018-04-16 22:36:16:507
-2.808;-9.339;0.036;-3.044;-9.306;0.546;0.202;0.008;-0.546;-0.043;0.264;-0.032;-3.7;0.6;31.2;42.44;2103;2018-04-16 22:36:16:517
-2.808;-9.339;0.036;-3.04;-9.309;0.517;0.265;-0.035;-0.477;-0.042;0.261;-0.026;-3.7;0.5;31.3;42.44;2112;2018-04-16 22:36:16:526
-2.738;-9.37;0.043;-3.04;-9.309;0.517;0.265;-0.035;-0.477;-0.042;0.225;-0.017;-3.7;0.5;31.3;42.44;2122;2018-04-16 22:36:16:536
-2.689;-9.379;0.042;-3.035;-9.312;0.491;0.347;-0.067;-0.449;-0.038;0.182;-0.016;-3.8;0.6;31.3;42.44;2133;2018-04-16 22:36:16:547
-2.61;-9.336;0.043;-3.035;-9.312;0.491;0.347;-0.067;-0.449;-0.023;0.123;-0.016;-3.8;0.6;31.3;42.44;2142;2018-04-16 22:36:16:556
-2.543;-9.306;0.043;-3.03;-9.315;0.474;0.435;-0.02;-0.43;-0.009;0.024;-0.015;-3.9;0.5;31.3;42.44;2153;2018-04-16 22:36:16:567
-2.543;-9.306;0.043;-3.03;-9.315;0.474;0.435;-0.02;-0.43;0.005;-0.033;-0.018;-3.9;0.5;31.3;42.44;2163;2018-04-16 22:36:16:577
-2.519;-9.295;0.078;-3.021;-9.318;0.469;0.503;0.022;-0.391;0.011;-0.078;-0.021;-4.0;0.5;31.2;42.44;2172;2018-04-16 22:36:16:586
-2.541;-9.312;0.101;-3.021;-9.318;0.469;0.503;0.022;-0.391;0.013;-0.103;-0.026;-4.0;0.5;31.2;42.44;2182;2018-04-16 22:36:16:596
-2.626;-9.358;0.091;-3.008;-9.322;0.469;0.447;-0.002;-0.371;0.011;-0.121;-0.027;-4.0;0.5;31.2;42.44;2193;2018-04-16 22:36:16:607
-2.626;-9.358;0.091;-3.008;-9.322;0.469;0.447;-0.002;-0.371;0.011;-0.121;-0.027;-4.0;0.5;31.2;42.44;2202;2018-04-16 22:36:16:616
-2.697;-9.357;0.09;-2.996;-9.326;0.473;0.299;-0.031;-0.383;0.016;-0.138;-0.028;-4.0;0.5;31.2;42.44;2213;2018-04-16 22:36:16:627
-2.826;-9.345;0.099;-2.996;-9.326;0.473;0.299;-0.031;-0.383;0.024;-0.139;-0.026;-4.0;0.5;31.2;42.44;2223;2018-04-16 22:36:16:637
-2.826;-9.345;0.099;-2.988;-9.328;0.481;0.139;-0.011;-0.377;0.031;-0.132;-0.023;-4.0;0.5;31.2;42.44;2232;2018-04-16 22:36:16:646
-2.875;-9.334;0.096;-2.988;-9.328;0.481;0.139;-0.011;-0.377;0.033;-0.111;-0.017;-4.0;0.5;31.2;42.44;2243;2018-04-16 22:36:16:657
-2.896;-9.339;0.117;-2.984;-9.329;0.49;0.088;-0.01;-0.372;0.033;-0.111;-0.017;-4.0;0.5;31.3;42.44;2253;2018-04-16 22:36:16:667
-2.869;-9.336;0.121;-2.984;-9.329;0.49;0.088;-0.01;-0.372;0.031;-0.062;-0.01;-4.0;0.5;31.3;42.44;2263;2018-04-16 22:36:16:677
-2.764;-9.307;0.097;-2.98;-9.33;0.493;0.151;0.008;-0.381;0.026;-0.022;-0.009;-4.0;0.6;31.4;42.44;2273;2018-04-16 22:36:16:687
-2.764;-9.307;0.097;-2.98;-9.33;0.493;0.151;0.008;-0.381;0.026;-0.022;-0.009;-4.0;0.6;31.4;42.44;2283;2018-04-16 22:36:16:697
-2.701;-9.322;0.075;-2.976;-9.331;0.486;0.276;0.01;-0.411;0.013;0.082;-0.004;-4.0;0.6;31.4;42.44;2295;2018-04-16 22:36:16:709
-2.701;-9.322;0.075;-2.976;-9.331;0.486;0.276;0.01;-0.411;0.013;0.082;-0.004;-4.0;0.6;31.3;42.44;2303;2018-04-16 22:36:16:717
-2.666;-9.339;0.062;-2.971;-9.334;0.475;0.305;-0.005;-0.413;0.012;0.097;-0.005;-4.0;0.6;31.3;42.44;2312;2018-04-16 22:36:16:726
-2.658;-9.385;0.051;-2.971;-9.334;0.475;0.305;-0.005;-0.413;0.009;0.098;-0.007;-4.0;0.6;31.3;42.44;2323;2018-04-16 22:36:16:737
-2.658;-9.385;0.051;-2.965;-9.336;0.463;0.315;-0.058;-0.412;0.013;0.087;-0.009;-4.0;0.6;31.3;42.39;2333;2018-04-16 22:36:16:747
-2.664;-9.397;0.057;-2.965;-9.336;0.463;0.315;-0.058;-0.412;0.006;0.067;-0.01;-4.0;0.6;31.3;42.39;2343;2018-04-16 22:36:16:757
-2.662;-9.408;0.048;-2.96;-9.338;0.454;0.297;-0.07;-0.406;0.007;0.055;-0.01;-4.1;0.7;31.3;42.39;2353;2018-04-16 22:36:16:767
-2.67;-9.358;0.072;-2.96;-9.338;0.454;0.297;-0.07;-0.406;0.001;0.02;-0.01;-4.1;0.7;31.3;42.39;2362;2018-04-16 22:36:16:776
-2.67;-9.358;0.072;-2.954;-9.34;0.447;0.275;-0.003;-0.369;0.001;0.02;-0.01;-4.1;0.7;31.4;42.39;2373;2018-04-16 22:36:16:787
-2.692;-9.324;0.069;-2.954;-9.34;0.447;0.275;-0.003;-0.369;-0.007;-0.021;-0.009;-4.1;0.7;31.4;42.39;2383;2018-04-16 22:36:16:797
-2.695;-9.307;0.085;-2.948;-9.343;0.44;0.253;0.035;-0.355;-0.009;-0.048;-0.009;-4.1;0.7;31.3;42.39;2393;2018-04-16 22:36:16:807
-2.667;-9.322;0.127;-2.948;-9.343;0.44;0.253;0.035;-0.355;-0.005;-0.077;-0.005;-4.1;0.7;31.3;42.39;2403;2018-04-16 22:36:16:817
-2.667;-9.322;0.127;-2.941;-9.345;0.437;0.285;0.014;-0.299;-0.005;-0.077;-0.005;-4.1;0.7;31.3;42.39;2413;2018-04-16 22:36:16:827
-2.635;-9.361;0.146;-2.941;-9.345;0.437;0.285;0.014;-0.299;0.005;-0.088;-0.002;-4.1;0.7;31.3;42.39;2423;2018-04-16 22:36:16:837
-2.638;-9.395;0.181;-2.935;-9.347;0.438;0.296;-0.048;-0.257;0.009;-0.087;-0.005;-4.1;0.7;31.3;42.39;2433;2018-04-16 22:36:16:847
-2.638;-9.395;0.181;-2.935;-9.347;0.438;0.296;-0.048;-0.257;0.015;-0.078;-0.005;-4.1;0.7;31.3;42.39;2443;2018-04-16 22:36:16:857
-2.652;-9.39;0.147;-2.929;-9.349;0.44;0.277;-0.041;-0.293;0.018;-0.066;-0.006;-4.1;0.7;31.3;42.39;2453;2018-04-16 22:36:16:867
-2.652;-9.39;0.147;-2.929;-9.349;0.44;0.277;-0.041;-0.293;0.018;-0.066;-0.006;-4.1;0.7;31.3;42.39;2462;2018-04-16 22:36:16:876
-2.707;-9.33;0.128;-2.923;-9.35;0.442;0.216;0.02;-0.314;0.026;-0.018;-0.01;-4.1;0.8;31.3;42.39;2473;2018-04-16 22:36:16:887
-2.735;-9.333;0.107;-2.923;-9.35;0.442;0.216;0.02;-0.314;0.024;-0.018;-0.01;-4.1;0.8;31.3;42.39;2483;2018-04-16 22:36:16:897
-2.756;-9.379;0.069;-2.919;-9.352;0.44;0.169;0.006;-0.352;0.023;-0.01;-0.005;-4.1;0.8;31.3;42.39;2493;2018-04-16 22:36:16:907
-2.756;-9.379;0.069;-2.919;-9.352;0.44;0.169;0.006;-0.352;0.012;-0.007;-0.001;-4.1;0.8;31.3;42.39;2502;2018-04-16 22:36:16:916
-2.758;-9.396;0.05;-2.916;-9.353;0.436;0.158;-0.043;-0.386;0.009;-0.01;0.002;-4.1;0.8;31.2;42.39;2512;2018-04-16 22:36:16:926
-2.711;-9.421;0.05;-2.916;-9.353;0.436;0.158;-0.043;-0.386;0.004;-0.021;0.007;-4.1;0.8;31.2;42.39;2523;2018-04-16 22:36:16:937
-2.711;-9.421;0.05;-2.913;-9.354;0.431;0.226;-0.06;-0.382;0.001;-0.033;0.009;-4.0;0.8;31.2;42.39;2533;2018-04-16 22:36:16:947
-2.631;-9.408;0.079;-2.913;-9.354;0.431;0.226;-0.06;-0.382;-0.006;-0.045;0.009;-4.0;0.8;31.2;42.39;2543;2018-04-16 22:36:16:957
-2.585;-9.379;0.083;-2.91;-9.355;0.427;0.326;-0.024;-0.344;-0.009;-0.048;0.007;-4.1;0.8;31.1;42.39;2553;2018-04-16 22:36:16:967
-2.545;-9.386;0.128;-2.91;-9.355;0.427;0.326;-0.024;-0.344;-0.012;-0.048;0.005;-4.0;0.8;31.1;42.39;2563;2018-04-16 22:36:16:977
-2.545;-9.386;0.128;-2.905;-9.357;0.421;0.36;-0.041;-0.293;-0.012;-0.048;0.005;-4.0;0.8;31.1;42.39;2573;2018-04-16 22:36:16:987
-2.537;-9.394;0.139;-2.905;-9.357;0.421;0.36;-0.041;-0.293;-0.026;-0.04;0.0;-4.0;0.8;31.2;42.39;2583;2018-04-16 22:36:16:997
-2.537;-9.394;0.139;-2.898;-9.36;0.413;0.31;-0.039;-0.25;-0.027;-0.039;-0.004;-4.0;0.8;31.2;42.39;2593;2018-04-16 22:36:17:007
-2.638;-9.39;0.153;-2.898;-9.36;0.413;0.31;-0.039;-0.25;-0.028;-0.051;-0.011;-4.1;0.8;31.1;42.39;2603;2018-04-16 22:36:17:017
-2.698;-9.401;0.159;-2.891;-9.362;0.406;0.202;-0.023;-0.247;-0.02;-0.072;-0.013;-4.1;0.8;31.1;42.39;2613;2018-04-16 22:36:17:027
-2.698;-9.401;0.159;-2.891;-9.362;0.406;0.202;-0.023;-0.247;-0.02;-0.072;-0.013;-4.1;0.8;31.0;42.39;2623;2018-04-16 22:36:17:037
-2.782;-9.376;0.202;-2.886;-9.364;0.405;0.104;-0.012;-0.202;-0.006;-0.088;-0.015;-4.1;0.8;31.0;46.89;2633;2018-04-16 22:36:17:047
-2.805;-9.364;0.187;-2.886;-9.364;0.405;0.104;-0.012;-0.202;0.001;-0.094;-0.016;-4.1;0.9;31.2;46.89;2643;2018-04-16 22:36:17:057
-2.805;-9.364;0.187;-2.882;-9.365;0.408;0.055;-0.007;-0.212;0.015;-0.087;-0.013;-4.1;0.9;31.2;46.89;2653;2018-04-16 22:36:17:067
-2.834;-9.371;0.187;-2.882;-9.365;0.408;0.055;-0.007;-0.212;0.015;-0.087;-0.013;-4.0;0.8;31.1;46.89;2663;2018-04-16 22:36:17:077
-2.825;-9.374;0.142;-2.878;-9.366;0.413;0.053;-0.009;-0.271;0.018;-0.066;-0.013;-4.0;0.8;31.1;46.89;2673;2018-04-16 22:36:17:087
-2.761;-9.364;0.077;-2.878;-9.366;0.413;0.053;-0.009;-0.271;0.012;-0.034;-0.012;-4.0;0.8;31.0;46.89;2683;2018-04-16 22:36:17:097
-2.761;-9.364;0.077;-2.874;-9.367;0.413;0.135;0.025;-0.344;0.012;-0.034;-0.012;-4.0;0.8;31.0;46.89;2692;2018-04-16 22:36:17:106
-2.71;-9.337;0.051;-2.874;-9.367;0.413;0.135;0.025;-0.344;-0.005;-0.004;-0.013;-4.0;0.8;31.1;46.89;2703;2018-04-16 22:36:17:117
-2.703;-9.352;0.047;-2.869;-9.369;0.405;0.173;0.024;-0.362;-0.017;0.015;-0.013;-4.0;0.8;31.1;46.89;2714;2018-04-16 22:36:17:128
-2.703;-9.352;0.047;-2.869;-9.369;0.405;0.173;0.024;-0.362;-0.032;0.026;-0.017;-3.9;0.8;31.2;46.89;2723;2018-04-16 22:36:17:137
-2.722;-9.346;0.075;-2.864;-9.371;0.39;0.142;0.025;-0.314;-0.049;0.027;-0.018;-3.9;0.8;31.2;46.89;2732;2018-04-16 22:36:17:146
-2.711;-9.377;0.15;-2.864;-9.371;0.39;0.142;0.025;-0.314;-0.049;0.027;-0.018;-3.9;0.8;31.1;46.89;2743;2018-04-16 22:36:17:157
-2.711;-9.377;0.15;-2.859;-9.373;0.375;0.146;-0.001;-0.214;-0.05;0.022;-0.017;-3.9;0.8;31.1;46.89;2752;2018-04-16 22:36:17:166
-2.709;-9.358;0.172;-2.859;-9.373;0.375;0.146;-0.001;-0.214;-0.05;0.021;-0.018;-3.9;0.8;31.1;46.89;2763;2018-04-16 22:36:17:177
-2.699;-9.319;0.193;-2.853;-9.375;0.361;0.155;0.025;-0.193;-0.046;0.007;-0.018;-3.9;0.8;31.1;46.89;2772;2018-04-16 22:36:17:186
-2.728;-9.335;0.198;-2.853;-9.375;0.361;0.155;0.025;-0.193;-0.043;-0.006;-0.021;-3.9;0.8;31.1;46.89;2783;2018-04-16 22:36:17:197
-2.728;-9.335;0.198;-2.848;-9.377;0.351;0.111;0.041;-0.156;-0.039;-0.023;-0.021;-3.9;0.8;31.1;46.89;2793;2018-04-16 22:36:17:207
-2.764;-9.304;0.215;-2.848;-9.377;0.351;0.111;0.041;-0.156;-0.039;-0.023;-0.021;-3.8;0.7;31.1;46.89;2803;2018-04-16 22:36:17:217
-2.808;-9.291;0.238;-2.843;-9.379;0.345;0.048;0.096;-0.119;-0.031;-0.044;-0.018;-3.8;0.7;31.1;46.89;2813;2018-04-16 22:36:17:227
-2.808;-9.291;0.238;-2.843;-9.379;0.345;0.048;0.096;-0.119;-0.021;-0.051;-0.018;-3.8;0.7;31.1;46.89;2823;2018-04-16 22:36:17:237
-2.85;-9.297;0.238;-2.84;-9.38;0.343;-0.011;0.083;-0.105;-0.01;-0.054;-0.017;-3.8;0.7;31.1;46.89;2833;2018-04-16 22:36:17:247
-2.85;-9.297;0.238;-2.84;-9.38;0.343;-0.011;0.083;-0.105;-0.01;-0.054;-0.017;-3.8;0.7;31.1;46.89;2843;2018-04-16 22:36:17:257
-2.883;-9.272;0.224;-2.837;-9.381;0.346;-0.045;0.109;-0.122;0.015;-0.035;-0.017;-3.8;0.7;31.1;46.89;2853;2018-04-16 22:36:17:267
-2.899;-9.293;0.19;-2.837;-9.381;0.346;-0.045;0.109;-0.122;0.026;-0.02;-0.013;-3.7;0.8;31.1;46.89;2863;2018-04-16 22:36:17:277
-2.899;-9.293;0.19;-2.837;-9.381;0.349;-0.052;0.09;-0.159;0.031;0.007;-0.005;-3.7;0.8;31.1;46.89;2872;2018-04-16 22:36:17:286
-2.86;-9.301;0.134;-2.837;-9.381;0.349;-0.052;0.09;-0.159;0.028;0.031;-0.002;-3.8;0.8;31.0;46.89;2883;2018-04-16 22:36:17:297
-2.793;-9.322;0.089;-2.837;-9.381;0.349;0.028;0.063;-0.247;0.015;0.064;0.004;-3.8;0.8;31.0;46.89;2893;2018-04-16 22:36:17:307
-2.793;-9.322;0.089;-2.837;-9.381;0.349;0.028;0.063;-0.247;0.015;0.064;0.004;-3.7;0.8;31.1;46.89;2903;2018-04-16 22:36:17:317
-2.728;-9.336;0.06;-2.837;-9.381;0.342;0.109;0.045;-0.282;0.001;0.072;0.005;-3.7;0.8;31.1;46.89;2913;2018-04-16 22:36:17:327
-2.667;-9.333;0.069;-2.837;-9.381;0.342;0.109;0.045;-0.282;-0.001;0.079;0.006;-3.7;0.7;31.1;46.89;2923;2018-04-16 22:36:17:337
-2.667;-9.333;0.069;-2.837;-9.381;0.333;0.171;0.043;-0.246;-0.001;0.079;0.006;-3.7;0.7;31.1;46.89;2933;2018-04-16 22:36:17:347
-2.636;-9.365;0.096;-2.837;-9.381;0.333;0.171;0.043;-0.246;0.002;0.073;0.001;-3.7;0.7;30.9;48.45;2943;2018-04-16 22:36:17:357
-2.595;-9.394;0.138;-2.835;-9.382;0.327;0.224;0.008;-0.22;0.011;0.066;0.001;-3.7;0.7;30.9;48.45;2953;2018-04-16 22:36:17:367
-2.595;-9.394;0.138;-2.835;-9.382;0.327;0.224;0.008;-0.22;0.018;0.061;-0.005;-3.7;0.7;31.0;48.45;2963;2018-04-16 22:36:17:377
-2.553;-9.412;0.111;-2.831;-9.384;0.325;0.277;-0.028;-0.213;0.018;0.061;-0.005;-3.7;0.7;31.0;48.45;2973;2018-04-16 22:36:17:387
-2.558;-9.401;0.077;-2.831;-9.384;0.325;0.277;-0.028;-0.213;0.024;0.059;-0.009;-3.7;0.7;31.0;48.45;2983;2018-04-16 22:36:17:397
-2.604;-9.372;0.043;-2.826;-9.385;0.323;0.271;-0.001;-0.258;0.026;0.051;-0.013;-3.7;0.7;31.0;48.45;2993;2018-04-16 22:36:17:407
-2.604;-9.372;0.043;-2.826;-9.385;0.323;0.271;-0.001;-0.258;0.037;0.016;-0.022;-3.7;0.7;31.1;48.45;3003;2018-04-16 22:36:17:417
-2.632;-9.369;0.008;-2.82;-9.387;0.324;0.187;0.018;-0.315;0.039;-0.005;-0.02;-3.7;0.7;31.1;48.45;3013;2018-04-16 22:36:17:427
-2.661;-9.379;-0.04;-2.82;-9.387;0.324;0.187;0.018;-0.315;0.04;-0.024;-0.016;-3.7;0.7;31.1;48.45;3024;2018-04-16 22:36:17:438
-2.661;-9.379;-0.04;-2.82;-9.387;0.324;0.187;0.018;-0.315;0.04;-0.024;-0.016;-3.7;0.7;31.1;48.45;3033;2018-04-16 22:36:17:447
-2.652;-9.358;-0.042;-2.814;-9.389;0.326;0.162;0.031;-0.368;0.035;-0.032;-0.017;-3.7;0.7;31.2;48.45;3043;2018-04-16 22:36:17:457
-2.652;-9.358;-0.042;-2.814;-9.389;0.326;0.162;0.031;-0.368;0.002;-0.018;-0.015;-3.7;0.7;31.2;48.45;3053;2018-04-16 22:36:17:467
-2.588;-9.367;-0.053;-2.814;-9.389;0.326;0.162;0.031;-0.368;0.002;-0.018;-0.015;-3.7;0.8;31.2;48.45;3063;2018-04-16 22:36:17:477
-2.588;-9.367;-0.053;-2.803;-9.392;0.32;0.219;0.03;-0.375;-0.015;-0.004;-0.015;-3.7;0.8;31.2;48.45;3073;2018-04-16 22:36:17:487
-2.564;-9.367;-0.017;-2.803;-9.392;0.32;0.219;0.03;-0.375;-0.04;0.029;-0.016;-3.7;0.8;31.2;48.45;3083;2018-04-16 22:36:17:497
-2.593;-9.359;0.023;-2.797;-9.394;0.306;0.204;0.035;-0.283;-0.053;0.043;-0.013;-3.7;0.8;31.2;48.45;3093;2018-04-16 22:36:17:507
-2.655;-9.357;0.066;-2.797;-9.394;0.306;0.204;0.035;-0.283;-0.059;0.05;-0.013;-3.7;0.8;31.3;48.45;3103;2018-04-16 22:36:17:517
-2.655;-9.357;0.066;-2.793;-9.396;0.288;0.116;0.05;-0.211;-0.059;0.051;-0.012;-3.7;0.8;31.3;48.45;3113;2018-04-16 22:36:17:527
-2.709;-9.359;0.103;-2.793;-9.396;0.288;0.116;0.05;-0.211;-0.059;0.044;-0.011;-3.8;0.8;31.2;48.45;3123;2018-04-16 22:36:17:537
-2.752;-9.38;0.172;-2.791;-9.397;0.273;0.052;0.031;-0.115;-0.053;0.033;-0.009;-3.8;0.8;31.2;48.45;3132;2018-04-16 22:36:17:546
-2.752;-9.38;0.172;-2.791;-9.397;0.273;0.052;0.031;-0.115;-0.044;0.02;-0.005;-3.8;0.8;31.3;48.45;3143;2018-04-16 22:36:17:557
-2.747;-9.382;0.189;-2.79;-9.398;0.262;0.042;0.016;-0.073;-0.044;0.02;-0.005;-3.8;0.8;31.3;48.45;3153;2018-04-16 22:36:17:567
-2.707;-9.384;0.206;-2.79;-9.398;0.262;0.042;0.016;-0.073;-0.032;-0.005;0.0;-3.8;0.8;31.3;48.45;3162;2018-04-16 22:36:17:576
-2.707;-9.384;0.206;-2.789;-9.398;0.258;0.096;0.014;-0.057;-0.021;-0.027;-0.002;-3.8;0.8;31.3;48.45;3173;2018-04-16 22:36:17:587
-2.648;-9.351;0.17;-2.789;-9.398;0.258;0.096;0.014;-0.057;-0.006;-0.046;-0.002;-3.9;0.8;31.3;48.45;3182;2018-04-16 22:36:17:596
-2.648;-9.351;0.17;-2.786;-9.399;0.26;0.17;0.058;-0.121;0.007;-0.064;-0.007;-3.9;0.8;31.3;48.45;3193;2018-04-16 22:36:17:607
-2.598;-9.325;0.122;-2.786;-9.399;0.26;0.17;0.058;-0.121;0.022;-0.072;-0.009;-3.9;0.7;31.2;48.45;3203;2018-04-16 22:36:17:617
-2.598;-9.325;0.122;-2.782;-9.4;0.267;0.208;0.069;-0.175;0.031;-0.068;-0.015;-3.9;0.7;31.2;48.45;3213;2018-04-16 22:36:17:627
-2.581;-9.357;0.051;-2.782;-9.4;0.267;0.208;0.069;-0.175;0.027;-0.051;-0.016;-3.9;0.8;31.3;48.45;3222;2018-04-16 22:36:17:636
-2.636;-9.361;0.043;-2.776;-9.402;0.272;0.14;0.04;-0.228;0.018;-0.035;-0.02;-3.9;0.8;31.3;48.45;3233;2018-04-16 22:36:17:647
-2.729;-9.363;0.043;-2.776;-9.402;0.272;0.14;0.04;-0.228;0.006;-0.016;-0.021;-3.9;0.8;31.4;48.45;3243;2018-04-16 22:36:17:657
-2.729;-9.363;0.043;-2.772;-9.403;0.271;0.027;0.03;-0.228;0.006;-0.016;-0.021;-3.9;0.8;31.4;49.54;3253;2018-04-16 22:36:17:667
-2.786;-9.37;0.043;-2.772;-9.403;0.271;0.027;0.03;-0.228;-0.016;0.013;-0.017;-3.9;0.9;31.4;49.54;3263;2018-04-16 22:36:17:677
-2.841;-9.36;0.087;-2.77;-9.404;0.262;-0.056;0.048;-0.192;-0.029;0.028;-0.011;-3.9;0.9;31.4;49.54;3273;2018-04-16 22:36:17:687
-2.841;-9.36;0.087;-2.77;-9.404;0.262;-0.056;0.048;-0.192;-0.039;0.045;0.0;-3.9;0.9;31.3;49.54;3283;2018-04-16 22:36:17:697
-2.842;-9.321;0.117;-2.77;-9.404;0.251;-0.072;0.083;-0.134;-0.039;0.045;0.0;-3.9;0.9;31.3;49.54;3293;2018-04-16 22:36:17:707
-2.781;-9.317;0.17;-2.77;-9.404;0.251;-0.072;0.083;-0.134;-0.038;0.05;0.005;-3.8;1.0;31.4;49.54;3303;2018-04-16 22:36:17:717
-2.781;-9.317;0.17;-2.773;-9.403;0.241;0.012;0.097;-0.059;-0.032;0.059;0.011;-3.8;1.0;31.4;49.54;3313;2018-04-16 22:36:17:727
-2.711;-9.322;0.206;-2.773;-9.403;0.241;0.012;0.097;-0.059;-0.027;0.066;0.012;-3.8;1.0;31.3;49.54;3323;2018-04-16 22:36:17:737
-2.677;-9.349;0.208;-2.775;-9.403;0.231;0.089;0.076;-0.052;-0.023;0.071;0.009;-3.8;1.0;31.3;49.54;3332;2018-04-16 22:36:17:746
-2.677;-9.349;0.208;-2.775;-9.403;0.228;0.098;0.054;-0.019;-0.023;0.071;0.009;-3.9;0.9;31.3;49.54;3343;2018-04-16 22:36:17:757
-2.68;-9.373;0.186;-2.775;-9.403;0.221;0.089;0.025;-0.062;-0.017;0.061;0.006;-3.8;0.9;31.3;49.54;3354;2018-04-16 22:36:17:768
-2.702;-9.357;0.15;-2.775;-9.403;0.221;0.089;0.025;-0.062;-0.007;0.029;0.002;-3.8;0.9;31.3;49.54;3363;2018-04-16 22:36:17:777
-2.702;-9.357;0.15;-2.775;-9.403;0.221;0.089;0.025;-0.062;-0.007;0.029;0.002;-3.9;0.9;31.3;49.54;3373;2018-04-16 22:36:17:787
-2.746;-9.331;0.136;-2.775;-9.403;0.22;0.029;0.072;-0.084;0.002;-0.006;-0.001;-3.9;0.9;31.3;49.54;3383;2018-04-16 22:36:17:797
-2.758;-9.313;0.144;-2.775;-9.403;0.221;0.017;0.09;-0.078;0.009;-0.027;-0.001;-3.9;0.9;31.4;49.54;3393;2018-04-16 22:36:17:807
-2.749;-9.335;0.127;-2.775;-9.403;0.226;0.036;0.066;-0.103;0.02;-0.045;0.004;-3.9;0.9;31.4;49.54;3403;2018-04-16 22:36:17:817
-2.749;-9.335;0.127;-2.775;-9.403;0.226;0.036;0.066;-0.103;0.02;-0.045;0.004;-3.9;0.9;31.4;49.54;3413;2018-04-16 22:36:17:827
-2.703;-9.355;0.114;-2.775;-9.403;0.226;0.036;0.066;-0.103;0.024;-0.045;0.005;-3.9;0.9;31.4;49.54;3424;2018-04-16 22:36:17:838
-2.65;-9.379;0.087;-2.775;-9.403;0.232;0.099;0.031;-0.136;0.026;-0.039;0.004;-3.8;0.9;31.4;49.54;3433;2018-04-16 22:36:17:847
-2.65;-9.379;0.087;-2.775;-9.403;0.232;0.099;0.031;-0.136;0.018;-0.016;0.001;-3.8;0.9;31.4;49.54;3443;2018-04-16 22:36:17:857
-2.638;-9.372;0.065;-2.774;-9.403;0.234;0.135;0.031;-0.169;0.013;0.004;0.0;-3.8;1.0;31.5;49.54;3453;2018-04-16 22:36:17:867
-2.66;-9.389;0.043;-2.772;-9.404;0.231;0.112;0.015;-0.188;0.005;0.032;-0.004;-3.8;1.0;31.5;49.54;3463;2018-04-16 22:36:17:877
-2.66;-9.389;0.043;-2.772;-9.404;0.231;0.112;0.015;-0.188;0.005;0.032;-0.004;-3.8;1.0;31.5;49.54;3473;2018-04-16 22:36:17:887
-2.693;-9.382;0.05;-2.771;-9.404;0.229;0.077;0.023;-0.179;0.002;0.05;-0.007;-3.8;1.0;31.5;49.54;3483;2018-04-16 22:36:17:897
-2.693;-9.382;0.05;-2.771;-9.404;0.229;0.077;0.023;-0.179;-0.001;0.06;-0.007;-3.8;1.0;31.4;49.54;3493;2018-04-16 22:36:17:907
-2.732;-9.347;0.047;-2.77;-9.405;0.224;0.038;0.058;-0.177;-0.001;0.06;-0.007;-3.8;1.0;31.4;49.54;3502;2018-04-16 22:36:17:916
-2.734;-9.346;0.043;-2.769;-9.405;0.221;0.035;0.059;-0.178;0.0;0.066;-0.005;-3.7;1.1;31.4;49.54;3513;2018-04-16 22:36:17:927
-2.697;-9.353;0.043;-2.769;-9.405;0.221;0.035;0.059;-0.178;-0.005;0.056;0.0;-3.7;1.1;31.4;49.54;3523;2018-04-16 22:36:17:937
-2.678;-9.373;0.051;-2.769;-9.405;0.214;0.089;0.036;-0.17;-0.01;0.046;0.0;-3.8;1.1;31.4;49.54;3533;2018-04-16 22:36:17:947
-2.678;-9.373;0.051;-2.769;-9.405;0.214;0.089;0.036;-0.17;-0.017;0.029;0.0;-3.8;1.1;31.4;49.54;3543;2018-04-16 22:36:17:957
-2.66;-9.386;0.045;-2.768;-9.406;0.208;0.108;0.019;-0.162;-0.017;0.029;0.0;-3.8;1.0;31.3;49.54;3553;2018-04-16 22:36:17:967
-2.637;-9.379;0.063;-2.767;-9.406;0.201;0.132;0.029;-0.13;-0.023;0.021;0.001;-3.8;1.0;31.3;49.59;3563;2018-04-16 22:36:17:977
-2.637;-9.379;0.063;-2.767;-9.406;0.201;0.132;0.029;-0.13;-0.027;-0.01;-0.001;-3.8;1.0;31.3;49.59;3573;2018-04-16 22:36:17:987
-2.654;-9.373;0.089;-2.767;-9.406;0.201;0.132;0.029;-0.13;-0.027;-0.01;-0.001;-3.8;1.0;31.3;49.59;3583;2018-04-16 22:36:17:997
-2.664;-9.352;0.107;-2.765;-9.407;0.196;0.102;0.055;-0.09;-0.023;-0.035;-0.002;-3.8;1.0;31.3;49.59;3593;2018-04-16 22:36:18:007
-2.717;-9.348;0.123;-2.765;-9.407;0.196;0.102;0.055;-0.09;-0.013;-0.049;-0.005;-3.8;1.0;31.2;49.59;3603;2018-04-16 22:36:18:017
-2.717;-9.348;0.123;-2.763;-9.407;0.196;0.061;0.048;-0.08;-0.013;-0.049;-0.005;-3.8;1.0;31.2;49.59;3612;2018-04-16 22:36:18:026
-2.722;-9.361;0.107;-2.763;-9.407;0.196;0.061;0.048;-0.08;-0.001;-0.06;-0.005;-3.8;1.0;31.1;49.59;3623;2018-04-16 22:36:18:037
-2.719;-9.363;0.099;-2.762;-9.408;0.198;0.043;0.045;-0.099;0.004;-0.057;-0.005;-3.8;1.0;31.1;49.59;3633;2018-04-16 22:36:18:047
-2.708;-9.366;0.063;-2.762;-9.408;0.198;0.043;0.045;-0.099;0.002;-0.046;-0.005;-3.8;1.0;31.1;49.59;3643;2018-04-16 22:36:18:057
-2.708;-9.366;0.063;-2.76;-9.408;0.199;0.067;0.043;-0.149;-0.002;-0.037;-0.006;-3.8;1.0;31.1;49.59;3653;2018-04-16 22:36:18:067
-2.693;-9.358;0.043;-2.76;-9.408;0.199;0.067;0.043;-0.149;-0.002;-0.037;-0.006;-3.8;1.0;31.1;49.59;3663;2018-04-16 22:36:18:077
-2.707;-9.358;0.044;-2.758;-9.409;0.197;0.061;0.034;-0.154;-0.012;-0.023;-0.007;-3.8;1.0;31.1;49.59;3673;2018-04-16 22:36:18:087
-2.707;-9.358;0.044;-2.758;-9.409;0.197;0.061;0.034;-0.154;-0.017;-0.005;-0.012;-3.8;1.0;31.1;49.59;3683;2018-04-16 22:36:18:097
-2.713;-9.349;0.061;-2.755;-9.41;0.193;0.043;0.06;-0.132;-0.017;-0.005;-0.012;-3.8;1.0;31.1;49.59;3693;2018-04-16 22:36:18:107
-2.757;-9.336;0.079;-2.755;-9.41;0.193;0.043;0.06;-0.132;-0.023;0.015;-0.012;-3.8;1.0;31.0;49.59;3704;2018-04-16 22:36:18:118
-2.757;-9.336;0.079;-2.753;-9.41;0.186;0.003;0.054;-0.103;-0.023;0.031;-0.012;-3.8;1.0;31.0;49.59;3713;2018-04-16 22:36:18:127
-2.77;-9.349;0.09;-2.753;-9.41;0.186;0.003;0.054;-0.103;-0.022;0.038;-0.009;-3.9;1.0;31.1;49.59;3724;2018-04-16 22:36:18:138
-2.761;-9.357;0.099;-2.752;-9.411;0.179;-0.006;0.059;-0.088;-0.018;0.044;-0.005;-3.9;1.0;31.1;49.59;3734;2018-04-16 22:36:18:148
-2.761;-9.357;0.099;-2.752;-9.411;0.179;-0.006;0.059;-0.088;-0.018;0.044;-0.005;-3.9;1.0;31.1;49.59;3743;2018-04-16 22:36:18:157
-2.753;-9.329;0.128;-2.752;-9.411;0.173;-0.002;0.082;-0.044;-0.016;0.048;-0.002;-3.9;1.0;31.1;49.59;3753;2018-04-16 22:36:18:167
-2.729;-9.297;0.113;-2.752;-9.411;0.173;-0.002;0.082;-0.044;-0.02;0.049;-0.002;-4.0;0.9;31.0;49.59;3763;2018-04-16 22:36:18:177
-2.729;-9.297;0.113;-2.752;-9.411;0.166;0.023;0.113;-0.05;-0.017;0.042;-0.001;-4.0;0.9;31.0;49.59;3773;2018-04-16 22:36:18:187
-2.713;-9.325;0.121;-2.752;-9.411;0.166;0.023;0.113;-0.05;-0.001;0.021;-0.005;-4.0;0.9;31.0;49.59;3783;2018-04-16 22:36:18:197
-2.699;-9.335;0.115;-2.751;-9.412;0.164;0.058;0.086;-0.052;0.01;0.009;-0.002;-4.0;0.9;31.0;49.59;3793;2018-04-16 22:36:18:207
-2.695;-9.347;0.095;-2.751;-9.412;0.164;0.058;0.086;-0.052;0.017;0.002;-0.004;-4.0;0.9;31.1;49.59;3803;2018-04-16 22:36:18:217
-2.695;-9.347;0.095;-2.75;-9.412;0.166;0.064;0.053;-0.082;0.017;0.002;-0.004;-4.0;0.9;31.1;49.59;3813;2018-04-16 22:36:18:227
-2.668;-9.364;0.048;-2.75;-9.412;0.166;0.064;0.053;-0.082;0.018;-0.001;-0.004;-4.0;0.9;31.2;49.59;3823;2018-04-16 22:36:18:237
-2.668;-9.364;0.048;-2.749;-9.412;0.168;0.079;0.021;-0.125;0.018;-0.009;-0.001;-4.0;0.9;31.2;49.59;3833;2018-04-16 22:36:18:247
-2.661;-9.379;0.029;-2.749;-9.412;0.168;0.079;0.021;-0.125;0.016;-0.023;-0.002;-4.0;0.9;31.1;49.59;3843;2018-04-16 22:36:18:257
-2.648;-9.385;0.004;-2.747;-9.412;0.17;0.099;0.04;-0.154;0.016;-0.024;-0.005;-4.0;0.9;31.1;49.59;3853;2018-04-16 22:36:18:267
-2.648;-9.385;0.004;-2.747;-9.412;0.17;0.099;0.04;-0.154;0.01;-0.024;-0.006;-4.0;1.0;31.2;49.59;3863;2018-04-16 22:36:18:277
-2.659;-9.412;0.011;-2.745;-9.413;0.172;0.086;0.001;-0.161;0.007;-0.021;-0.006;-4.0;0.9;31.2;49.59;3874;2018-04-16 22:36:18:288
-2.659;-9.412;0.011;-2.745;-9.413;0.172;0.086;0.001;-0.161;0.007;-0.021;-0.006;-4.0;0.9;31.2;49.22;3884;2018-04-16 22:36:18:298
-2.659;-9.412;0.011;-2.745;-9.413;0.172;0.086;0.001;-0.161;0.007;-0.021;-0.006;-4.0;0.9;31.2;49.22;3893;2018-04-16 22:36:18:307
-2.625;-9.388;0.017;-2.741;-9.414;0.17;0.116;0.026;-0.154;0.0;-0.001;-0.013;-4.0;1.0;31.3;49.22;3903;2018-04-16 22:36:18:317
-2.678;-9.341;0.025;-2.735;-9.416;0.161;0.044;0.082;-0.119;-0.013;0.038;-0.022;-4.1;0.9;31.4;49.22;3913;2018-04-16 22:36:18:327
-2.716;-9.329;0.041;-2.733;-9.417;0.156;0.016;0.088;-0.115;-0.026;0.053;-0.024;-4.1;0.9;31.4;49.22;3926;2018-04-16 22:36:18:340
-2.716;-9.329;0.041;-2.733;-9.417;0.156;0.016;0.088;-0.115;-0.026;0.053;-0.024;-4.1;0.9;31.4;49.22;3933;2018-04-16 22:36:18:347
-2.753;-9.3;0.043;-2.733;-9.417;0.156;0.016;0.088;-0.115;-0.031;0.056;-0.021;-4.1;0.9;31.4;49.22;3943;2018-04-16 22:36:18:357
-2.731;-9.293;0.043;-2.729;-9.418;0.146;-0.007;0.132;-0.104;-0.032;0.045;-0.02;-4.1;0.9;31.4;49.22;3953;2018-04-16 22:36:18:367
-2.731;-9.293;0.043;-2.729;-9.418;0.146;-0.007;0.132;-0.104;-0.028;0.023;-0.015;-4.1;0.9;31.4;49.22;3963;2018-04-16 22:36:18:377
-2.716;-9.323;0.055;-2.727;-9.419;0.138;0.011;0.096;-0.083;-0.028;0.023;-0.015;-4.1;0.9;31.4;49.22;3973;2018-04-16 22:36:18:387
-2.698;-9.357;0.06;-2.727;-9.419;0.138;0.011;0.096;-0.083;-0.029;-0.002;-0.007;-4.1;0.9;31.4;49.22;3983;2018-04-16 22:36:18:397
-2.698;-9.357;0.06;-2.725;-9.419;0.133;0.033;0.054;-0.067;-0.029;-0.017;-0.009;-4.1;0.9;31.3;49.22;3992;2018-04-16 22:36:18:406
-2.686;-9.37;0.055;-2.725;-9.419;0.133;0.033;0.054;-0.067;-0.022;-0.039;-0.005;-4.1;0.9;31.3;49.22;4003;2018-04-16 22:36:18:417
-2.695;-9.367;0.09;-2.724;-9.42;0.13;0.033;0.056;-0.051;-0.012;-0.054;-0.007;-4.1;0.9;31.3;49.22;4013;2018-04-16 22:36:18:427
-2.695;-9.367;0.09;-2.724;-9.42;0.13;0.033;0.056;-0.051;-0.01;-0.057;-0.01;-4.1;0.9;31.3;49.22;4022;2018-04-16 22:36:18:436
-2.735;-9.337;0.117;-2.722;-9.42;0.131;-0.013;0.083;-0.013;-0.011;-0.051;-0.009;-4.1;0.9;31.3;49.22;4033;2018-04-16 22:36:18:447
-2.761;-9.329;0.126;-2.722;-9.42;0.131;-0.013;0.083;-0.013;-0.009;-0.04;-0.009;-4.1;0.9;31.3;49.22;4042;2018-04-16 22:36:18:456
-2.761;-9.329;0.126;-2.721;-9.421;0.131;-0.043;0.097;-0.016;-0.009;-0.04;-0.009;-4.1;0.9;31.3;49.22;4052;2018-04-16 22:36:18:466
-2.759;-9.322;0.105;-2.721;-9.421;0.131;-0.043;0.097;-0.016;-0.005;-0.029;-0.005;-4.1;0.9;31.3;49.22;4063;2018-04-16 22:36:18:477
-2.747;-9.331;0.103;-2.72;-9.421;0.131;-0.027;0.089;-0.028;-0.006;-0.022;-0.002;-4.1;0.9;31.2;49.22;4073;2018-04-16 22:36:18:487
-2.738;-9.315;0.111;-2.72;-9.421;0.131;-0.027;0.089;-0.028;-0.01;-0.01;0.0;-4.1;0.9;31.2;49.22;4083;2018-04-16 22:36:18:497
-2.738;-9.315;0.111;-2.721;-9.421;0.13;-0.008;0.08;-0.019;-0.01;-0.01;0.0;-4.1;0.9;31.2;49.22;4093;2018-04-16 22:36:18:507
-2.709;-9.339;0.116;-2.721;-9.421;0.13;-0.008;0.08;-0.019;-0.01;0.0;0.0;-4.1;0.9;31.2;49.22;4103;2018-04-16 22:36:18:517
-2.682;-9.365;0.079;-2.721;-9.421;0.129;0.025;0.065;-0.036;-0.004;0.0;-0.002;-4.1;0.8;31.1;49.22;4112;2018-04-16 22:36:18:526
-2.682;-9.365;0.079;-2.721;-9.421;0.129;0.025;0.065;-0.036;0.01;-0.01;-0.004;-4.1;0.8;31.1;49.22;4122;2018-04-16 22:36:18:536
-2.686;-9.37;0.093;-2.72;-9.421;0.13;0.033;0.051;-0.036;0.01;-0.01;-0.004;-4.1;0.9;31.1;49.22;4132;2018-04-16 22:36:18:546
-2.691;-9.352;0.049;-2.72;-9.421;0.13;0.033;0.051;-0.036;0.015;-0.011;-0.007;-4.1;0.9;31.1;49.22;4143;2018-04-16 22:36:18:557
-2.691;-9.352;0.049;-2.718;-9.421;0.132;0.034;0.069;-0.08;0.013;-0.006;-0.007;-4.1;0.9;31.1;49.22;4153;2018-04-16 22:36:18:567
-2.69;-9.361;0.043;-2.718;-9.421;0.132;0.034;0.069;-0.08;0.009;-0.001;-0.01;-4.1;0.9;31.1;49.22;4163;2018-04-16 22:36:18:577
-2.699;-9.361;0.043;-2.716;-9.422;0.132;0.017;0.061;-0.089;0.001;0.004;-0.009;-4.1;0.9;31.1;49.22;4173;2018-04-16 22:36:18:587
-2.719;-9.371;0.053;-2.716;-9.422;0.132;0.017;0.061;-0.089;-0.002;0.009;-0.009;-4.1;0.9;31.1;49.22;4183;2018-04-16 22:36:18:597
-2.719;-9.371;0.053;-2.715;-9.422;0.13;0.006;0.068;-0.082;-0.006;0.013;-0.007;-4.1;0.9;31.1;49.22;4193;2018-04-16 22:36:18:607
-2.698;-9.361;0.049;-2.715;-9.422;0.13;0.006;0.068;-0.082;-0.013;0.027;-0.007;-4.1;0.9;31.1;49.07;4203;2018-04-16 22:36:18:617
-2.698;-9.361;0.049;-2.713;-9.423;0.125;0.004;0.094;-0.057;-0.013;0.027;-0.007;-4.1;0.9;31.1;49.07;4213;2018-04-16 22:36:18:627
-2.678;-9.312;0.08;-2.713;-9.423;0.125;0.004;0.094;-0.057;-0.017;0.033;-0.006;-4.1;0.9;31.1;49.07;4223;2018-04-16 22:36:18:637
-2.702;-9.335;0.086;-2.712;-9.423;0.12;0.021;0.102;-0.035;-0.015;0.029;-0.007;-4.1;0.9;31.1;49.07;4233;2018-04-16 22:36:18:647
-2.702;-9.335;0.086;-2.712;-9.423;0.12;0.021;0.102;-0.035;-0.01;0.017;-0.005;-4.1;1.0;31.1;49.07;4243;2018-04-16 22:36:18:657
-2.683;-9.354;0.09;-2.711;-9.424;0.117;0.029;0.069;-0.027;-0.01;0.017;-0.005;-4.1;1.0;31.1;49.07;4253;2018-04-16 22:36:18:667
-2.67;-9.365;0.086;-2.711;-9.424;0.117;0.029;0.069;-0.027;-0.005;-0.001;-0.001;-4.1;1.0;31.1;49.07;4263;2018-04-16 22:36:18:677
-2.684;-9.373;0.092;-2.711;-9.424;0.116;0.036;0.057;-0.025;-0.004;-0.013;-0.004;-4.1;1.0;31.1;49.07;4273;2018-04-16 22:36:18:687
-2.684;-9.373;0.092;-2.711;-9.424;0.116;0.036;0.057;-0.025;0.0;-0.026;-0.002;-4.1;1.0;31.1;49.07;4283;2018-04-16 22:36:18:697
-2.695;-9.358;0.078;-2.71;-9.424;0.117;0.015;0.066;-0.04;0.004;-0.038;-0.005;-4.1;1.0;31.1;49.07;4293;2018-04-16 22:36:18:707
-2.704;-9.367;0.092;-2.71;-9.424;0.117;0.015;0.066;-0.04;0.004;-0.038;-0.005;-4.1;1.0;31.1;49.07;4303;2018-04-16 22:36:18:717
-2.704;-9.367;0.092;-2.709;-9.424;0.119;0.001;0.064;-0.038;0.002;-0.043;-0.007;-4.1;1.0;31.1;49.07;4313;2018-04-16 22:36:18:727
-2.721;-9.339;0.066;-2.709;-9.424;0.119;0.001;0.064;-0.038;0.002;-0.043;-0.007;-4.1;1.0;31.1;49.07;4323;2018-04-16 22:36:18:737
-2.703;-9.343;0.061;-2.708;-9.425;0.122;-0.019;0.086;-0.06;0.007;-0.043;-0.004;-4.0;1.0;31.2;49.07;4333;2018-04-16 22:36:18:747
-2.703;-9.343;0.061;-2.708;-9.425;0.122;-0.019;0.086;-0.06;0.009;-0.029;-0.005;-4.0;1.0;31.2;49.07;4343;2018-04-16 22:36:18:757
-2.687;-9.34;0.056;-2.707;-9.425;0.124;0.019;0.085;-0.068;0.005;-0.017;-0.009;-4.0;1.0;31.3;49.07;4353;2018-04-16 22:36:18:767
-2.667;-9.349;0.083;-2.707;-9.425;0.124;0.019;0.085;-0.068;0.005;-0.017;-0.009;-4.0;1.0;31.3;49.07;4363;2018-04-16 22:36:18:777
-2.667;-9.349;0.083;-2.705;-9.425;0.124;0.042;0.072;-0.049;0.0;0.016;-0.006;-4.0;1.0;31.3;49.07;4373;2018-04-16 22:36:18:787
-2.682;-9.373;0.065;-2.705;-9.425;0.124;0.042;0.072;-0.049;-0.009;0.048;-0.009;-4.0;1.0;31.3;49.07;4382;2018-04-16 22:36:18:796
-2.687;-9.37;0.066;-2.704;-9.426;0.119;0.016;0.056;-0.053;-0.009;0.048;-0.009;-4.0;1.0;31.2;49.07;4393;2018-04-16 22:36:18:807
-2.687;-9.37;0.066;-2.704;-9.426;0.119;0.016;0.056;-0.053;-0.009;0.048;-0.009;-4.0;1.0;31.2;49.07;4404;2018-04-16 22:36:18:818
-2.716;-9.351;0.056;-2.702;-9.426;0.115;-0.014;0.076;-0.059;-0.004;0.046;-0.01;-4.0;1.0;31.3;49.07;4413;2018-04-16 22:36:18:827
-2.71;-9.354;0.06;-2.701;-9.427;0.113;-0.009;0.072;-0.053;-0.01;0.039;-0.011;-4.0;1.0;31.3;49.07;4423;2018-04-16 22:36:18:837
-2.71;-9.354;0.06;-2.701;-9.427;0.113;-0.009;0.072;-0.053;-0.01;0.039;-0.011;-4.0;1.0;31.3;49.07;4434;2018-04-16 22:36:18:848
-2.732;-9.378;0.047;-2.7;-9.427;0.111;-0.032;0.049;-0.064;-0.007;0.001;-0.009;-4.0;1.0;31.3;49.07;4443;2018-04-16 22:36:18:857
-2.725;-9.361;0.066;-2.7;-9.427;0.111;-0.032;0.049;-0.064;-0.007;-0.018;-0.011;-4.0;1.0;31.3;49.07;4453;2018-04-16 22:36:18:867
-2.716;-9.336;0.079;-2.699;-9.427;0.11;-0.025;0.072;-0.041;-0.006;-0.033;-0.009;-4.0;1.0;31.3;49.07;4463;2018-04-16 22:36:18:877
-2.716;-9.336;0.079;-2.699;-9.427;0.11;-0.025;0.072;-0.041;-0.006;-0.033;-0.009;-4.0;1.0;31.3;49.07;4472;2018-04-16 22:36:18:886
-2.716;-9.336;0.079;-2.697;-9.428;0.111;-0.024;0.087;-0.026;-0.007;-0.048;-0.007;-4.1;0.9;31.3;49.07;4483;2018-04-16 22:36:18:897
-2.708;-9.348;0.096;-2.697;-9.428;0.111;-0.024;0.087;-0.026;-0.004;-0.044;-0.005;-4.1;0.9;31.3;49.07;4493;2018-04-16 22:36:18:907
-2.708;-9.348;0.096;-2.696;-9.428;0.112;-0.014;0.077;-0.024;-0.004;-0.039;-0.009;-4.0;0.9;31.5;49.07;4502;2018-04-16 22:36:18:916
-2.72;-9.352;0.091;-2.696;-9.428;0.112;-0.014;0.077;-0.024;0.001;-0.021;-0.012;-4.0;0.9;31.5;49.07;4513;2018-04-16 22:36:18:927
-2.757;-9.37;0.078;-2.695;-9.428;0.113;-0.037;0.073;-0.033;0.001;-0.004;-0.012;-4.0;0.9;31.4;49.27;4523;2018-04-16 22:36:18:937
-2.757;-9.37;0.078;-2.694;-9.429;0.113;-0.058;0.077;-0.035;-0.001;0.013;-0.016;-4.0;0.9;31.4;49.27;4533;2018-04-16 22:36:18:947
-2.765;-9.348;0.051;-2.694;-9.429;0.113;-0.058;0.077;-0.035;-0.006;0.026;-0.015;-4.1;0.9;31.5;49.27;4542;2018-04-16 22:36:18:956
-2.774;-9.34;0.048;-2.692;-9.429;0.109;-0.081;0.089;-0.061;-0.006;0.026;-0.015;-4.1;0.9;31.5;49.27;4553;2018-04-16 22:36:18:967
-2.774;-9.34;0.048;-2.692;-9.429;0.109;-0.081;0.089;-0.061;-0.016;0.029;-0.013;-4.0;0.8;31.4;49.27;4564;2018-04-16 22:36:18:978
-2.737;-9.34;0.043;-2.69;-9.43;0.103;-0.046;0.09;-0.06;-0.022;0.024;-0.012;-4.0;0.8;31.4;49.27;4573;2018-04-16 22:36:18:987
-2.68;-9.348;0.063;-2.69;-9.43;0.103;-0.046;0.09;-0.06;-0.024;0.015;-0.012;-4.0;0.8;31.4;49.27;4583;2018-04-16 22:36:18:997
-2.68;-9.348;0.063;-2.688;-9.43;0.096;0.014;0.092;-0.015;-0.024;0.015;-0.012;-4.0;0.8;31.4;49.27;4593;2018-04-16 22:36:19:007
-2.661;-9.351;0.095;-2.688;-9.43;0.096;0.014;0.092;-0.015;-0.029;0.007;-0.016;-4.0;0.8;31.4;49.27;4603;2018-04-16 22:36:19:017
-2.697;-9.357;0.127;-2.686;-9.431;0.091;-0.011;0.075;0.036;-0.029;0.004;-0.013;-4.0;0.8;31.4;49.27;4612;2018-04-16 22:36:19:026
-2.74;-9.361;0.14;-2.686;-9.431;0.091;-0.011;0.075;0.036;-0.026;0.0;-0.016;-4.1;0.8;31.4;49.27;4623;2018-04-16 22:36:19:037
-2.74;-9.361;0.14;-2.683;-9.432;0.087;-0.078;0.083;0.063;-0.017;-0.006;-0.015;-4.1;0.8;31.4;49.27;4633;2018-04-16 22:36:19:047
-2.768;-9.325;0.145;-2.683;-9.432;0.087;-0.078;0.083;0.063;-0.006;-0.011;-0.015;-4.1;0.8;31.2;49.27;4643;2018-04-16 22:36:19:057
-2.778;-9.321;0.132;-2.682;-9.432;0.087;-0.097;0.112;0.045;-0.006;-0.011;-0.015;-4.1;0.8;31.2;49.27;4652;2018-04-16 22:36:19:066
-2.77;-9.3;0.102;-2.682;-9.432;0.087;-0.097;0.112;0.045;0.012;-0.023;-0.01;-4.1;0.8;31.3;49.27;4663;2018-04-16 22:36:19:077
-2.77;-9.3;0.102;-2.681;-9.433;0.091;-0.077;0.136;0.006;0.017;-0.028;-0.009;-4.1;0.8;31.3;49.27;4672;2018-04-16 22:36:19:086
-2.737;-9.31;0.078;-2.681;-9.433;0.091;-0.077;0.136;0.006;0.016;-0.02;-0.01;-4.1;0.8;31.3;49.27;4683;2018-04-16 22:36:19:097
-2.723;-9.325;0.072;-2.68;-9.433;0.096;-0.043;0.107;-0.024;0.013;-0.006;-0.009;-4.1;0.8;31.3;49.27;4692;2018-04-16 22:36:19:106
-2.695;-9.351;0.051;-2.68;-9.433;0.096;-0.043;0.107;-0.024;0.009;0.01;-0.011;-4.1;0.8;31.3;49.27;4703;2018-04-16 22:36:19:117
-2.695;-9.351;0.051;-2.679;-9.433;0.097;-0.003;0.069;-0.045;0.005;0.023;-0.011;-4.1;0.8;31.3;49.27;4712;2018-04-16 22:36:19:126
-2.673;-9.343;0.063;-2.679;-9.433;0.097;-0.003;0.069;-0.045;0.002;0.037;-0.01;-4.1;0.8;31.2;49.27;4723;2018-04-16 22:36:19:137
-2.679;-9.343;0.073;-2.677;-9.434;0.094;-0.002;0.09;-0.021;0.002;0.045;-0.011;-4.1;0.8;31.2;49.27;4733;2018-04-16 22:36:19:147
-2.674;-9.353;0.087;-2.677;-9.434;0.094;-0.002;0.09;-0.021;0.009;0.057;-0.012;-4.1;0.8;31.1;49.27;4742;2018-04-16 22:36:19:156
-2.682;-9.357;0.093;-2.675;-9.434;0.093;-0.004;0.074;-0.008;0.011;0.065;-0.013;-4.1;0.8;31.1;49.27;4753;2018-04-16 22:36:19:167
-2.682;-9.357;0.093;-2.675;-9.434;0.093;-0.013;0.083;0.0;0.011;0.065;-0.013;-4.1;0.8;31.1;49.27;4763;2018-04-16 22:36:19:177
-2.693;-9.357;0.091;-2.673;-9.435;0.091;-0.013;0.083;0.0;0.012;0.079;-0.012;-4.1;0.8;31.1;49.27;4773;2018-04-16 22:36:19:187
-2.693;-9.357;0.091;-2.673;-9.435;0.091;-0.046;0.072;-0.003;0.01;0.094;-0.009;-4.1;0.8;31.1;49.27;4783;2018-04-16 22:36:19:197
-2.719;-9.352;0.067;-2.672;-9.435;0.088;-0.046;0.072;-0.003;0.01;0.092;-0.013;-4.1;0.9;31.0;49.27;4793;2018-04-16 22:36:19:207
-2.737;-9.358;0.043;-2.672;-9.435;0.088;-0.071;0.095;-0.043;0.01;0.092;-0.013;-4.1;0.9;31.0;49.27;4802;2018-04-16 22:36:19:216
-2.737;-9.358;0.043;-2.671;-9.435;0.085;-0.071;0.095;-0.043;0.01;0.066;-0.01;-4.2;0.9;31.0;49.27;4813;2018-04-16 22:36:19:227
-2.747;-9.377;0.03;-2.671;-9.435;0.085;-0.076;0.059;-0.055;0.016;0.012;-0.007;-4.2;0.9;31.0;49.27;4823;2018-04-16 22:36:19:237
-2.704;-9.361;0.002;-2.67;-9.436;0.086;-0.034;0.074;-0.084;0.016;0.012;-0.007;-4.2;0.9;30.9;49.27;4833;2018-04-16 22:36:19:247
-2.634;-9.309;0.004;-2.67;-9.436;0.086;-0.034;0.074;-0.084;0.018;-0.038;-0.004;-4.2;0.9;30.9;49.27;4843;2018-04-16 22:36:19:257
-2.634;-9.309;0.004;-2.67;-9.436;0.091;0.051;0.131;-0.097;0.017;-0.057;-0.002;-4.2;0.9;30.8;49.27;4853;2018-04-16 22:36:19:267
-2.62;-9.328;0.023;-2.67;-9.436;0.091;0.051;0.131;-0.097;0.005;-0.061;-0.006;-4.2;0.9;30.8;49.4;4863;2018-04-16 22:36:19:277
-2.653;-9.384;0.05;-2.668;-9.436;0.094;0.028;0.06;-0.05;-0.002;-0.044;-0.006;-4.2;0.9;30.8;49.4;4873;2018-04-16 22:36:19:287
-2.653;-9.384;0.05;-2.668;-9.436;0.094;0.028;0.06;-0.05;-0.002;-0.044;-0.006;-4.2;0.9;30.8;49.4;4883;2018-04-16 22:36:19:297
-2.674;-9.386;0.067;-2.667;-9.436;0.092;-0.007;0.05;-0.025;-0.017;-0.012;-0.006;-4.2;0.9;30.9;49.4;4893;2018-04-16 22:36:19:307
-2.683;-9.358;0.067;-2.667;-9.436;0.092;-0.007;0.05;-0.025;-0.021;0.001;-0.009;-4.2;0.9;30.9;49.4;4903;2018-04-16 22:36:19:317
-2.683;-9.358;0.067;-2.666;-9.437;0.089;-0.022;0.088;-0.032;-0.011;0.007;-0.011;-4.2;0.9;31.0;49.4;4913;2018-04-16 22:36:19:327
-2.698;-9.349;0.043;-2.666;-9.437;0.089;-0.022;0.088;-0.032;-0.007;-0.001;-0.011;-4.2;0.9;31.0;49.4;4923;2018-04-16 22:36:19:337
-2.734;-9.335;0.043;-2.664;-9.437;0.088;-0.07;0.102;-0.045;0.005;-0.012;-0.012;-4.2;0.9;31.1;49.4;4932;2018-04-16 22:36:19:346
-2.734;-9.335;0.043;-2.664;-9.437;0.088;-0.07;0.102;-0.045;0.0;-0.016;-0.011;-4.2;0.9;31.1;49.4;4943;2018-04-16 22:36:19:357
-2.741;-9.318;0.087;-2.663;-9.438;0.09;-0.078;0.119;-0.002;-0.009;0.0;-0.012;-4.2;1.0;31.1;49.4;4953;2018-04-16 22:36:19:367
-2.713;-9.316;0.099;-2.663;-9.438;0.09;-0.078;0.119;-0.002;-0.009;0.0;-0.012;-4.2;1.0;31.1;49.4;4963;2018-04-16 22:36:19:377
-2.713;-9.316;0.099;-2.662;-9.438;0.086;-0.058;0.116;0.018;-0.02;0.015;-0.012;-4.1;1.0;31.1;49.4;4973;2018-04-16 22:36:19:387
-2.714;-9.333;0.13;-2.662;-9.438;0.086;-0.058;0.116;0.018;-0.022;0.027;-0.012;-4.1;1.0;31.1;49.4;4983;2018-04-16 22:36:19:397
-2.702;-9.334;0.122;-2.661;-9.438;0.082;-0.041;0.105;0.04;-0.007;0.02;-0.011;-4.2;1.0;31.1;49.4;4993;2018-04-16 22:36:19:407
-2.723;-9.336;0.146;-2.661;-9.438;0.082;-0.041;0.105;0.04;-0.007;0.02;-0.011;-4.2;1.0;31.1;49.4;5003;2018-04-16 22:36:19:417
-2.723;-9.336;0.146;-2.659;-9.439;0.083;-0.069;0.098;0.052;0.01;0.004;-0.012;-4.2;1.0;31.0;49.4;5013;2018-04-16 22:36:19:427
-2.734;-9.346;0.113;-2.659;-9.439;0.083;-0.069;0.098;0.052;0.021;-0.002;-0.013;-4.2;1.0;31.0;49.4;5023;2018-04-16 22:36:19:437
-2.744;-9.366;0.096;-2.657;-9.439;0.087;-0.086;0.073;0.009;0.021;-0.002;-0.013;-4.2;1.0;31.1;49.4;5033;2018-04-16 22:36:19:447
-2.744;-9.366;0.096;-2.657;-9.439;0.087;-0.086;0.073;0.009;0.021;-0.012;-0.013;-4.2;1.0;31.1;49.4;5043;2018-04-16 22:36:19:457
-2.734;-9.364;0.061;-2.656;-9.44;0.091;-0.078;0.076;-0.03;0.015;-0.02;-0.012;-4.2;1.0;31.2;49.4;5053;2018-04-16 22:36:19:467
-2.729;-9.377;0.044;-2.656;-9.44;0.091;-0.078;0.076;-0.03;0.005;-0.018;-0.012;-4.2;1.0;31.2;49.4;5063;2018-04-16 22:36:19:477
-2.703;-9.354;0.074;-2.655;-9.44;0.092;-0.066;0.074;-0.038;-0.006;-0.016;-0.011;-4.1;1.0;31.3;49.4;5073;2018-04-16 22:36:19:487
-2.703;-9.354;0.074;-2.655;-9.44;0.092;-0.066;0.074;-0.038;-0.006;-0.016;-0.011;-4.1;1.0;31.3;49.4;5083;2018-04-16 22:36:19:497
-2.69;-9.346;0.102;-2.653;-9.44;0.091;-0.037;0.095;0.011;-0.009;-0.013;-0.012;-4.1;1.1;31.3;49.4;5093;2018-04-16 22:36:19:507
-2.686;-9.342;0.116;-2.653;-9.44;0.091;-0.037;0.095;0.011;-0.002;-0.006;-0.015;-4.1;1.1;31.3;49.4;5103;2018-04-16 22:36:19:517
-2.686;-9.342;0.116;-2.651;-9.441;0.092;-0.026;0.092;0.033;-0.002;-0.006;-0.015;-4.1;1.1;31.3;49.4;5113;2018-04-16 22:36:19:527
-2.673;-9.359;0.123;-2.651;-9.441;0.092;-0.026;0.092;0.033;0.006;0.009;-0.018;-4.1;1.1;31.3;49.4;5123;2018-04-16 22:36:19:537
-2.682;-9.355;0.096;-2.648;-9.442;0.093;-0.034;0.087;0.003;0.012;0.023;-0.02;-4.2;1.1;31.3;49.4;5133;2018-04-16 22:36:19:547
-2.695;-9.347;0.059;-2.648;-9.442;0.093;-0.034;0.087;0.003;0.002;0.038;-0.021;-4.2;1.1;31.3;49.4;5144;2018-04-16 22:36:19:558
-2.692;-9.366;0.043;-2.644;-9.443;0.09;-0.05;0.096;-0.031;-0.004;0.037;-0.021;-4.2;1.1;31.4;49.4;5154;2018-04-16 22:36:19:568
-2.692;-9.366;0.043;-2.644;-9.443;0.09;-0.05;0.096;-0.031;-0.012;0.024;-0.02;-4.2;1.1;31.4;49.4;5163;2018-04-16 22:36:19:577
-2.692;-9.366;0.043;-2.641;-9.444;0.086;-0.045;0.085;-0.043;-0.012;0.024;-0.02;-4.2;1.1;31.4;49.4;5173;2018-04-16 22:36:19:587
-2.676;-9.358;0.043;-2.641;-9.444;0.086;-0.045;0.085;-0.043;-0.023;0.004;-0.017;-4.2;1.1;31.5;48.52;5183;2018-04-16 22:36:19:597
-2.667;-9.352;0.091;-2.639;-9.445;0.082;-0.026;0.095;-0.009;-0.026;-0.013;-0.017;-4.2;1.1;31.5;48.52;5193;2018-04-16 22:36:19:607
-2.67;-9.341;0.097;-2.637;-9.445;0.079;-0.032;0.104;0.018;-0.033;-0.026;-0.017;-4.1;1.1;31.3;48.52;5204;2018-04-16 22:36:19:618
-2.67;-9.341;0.097;-2.637;-9.445;0.079;-0.032;0.104;0.018;-0.033;-0.026;-0.017;-4.1;1.1;31.3;48.52;5212;2018-04-16 22:36:19:626
-2.66;-9.34;0.174;-2.637;-9.445;0.079;-0.032;0.104;0.018;-0.031;-0.043;-0.015;-4.2;1.2;31.3;48.52;5223;2018-04-16 22:36:19:637
-2.66;-9.34;0.174;-2.634;-9.446;0.075;-0.028;0.105;0.108;-0.027;-0.04;-0.013;-4.2;1.2;31.3;48.52;5233;2018-04-16 22:36:19:647
-2.672;-9.34;0.218;-2.634;-9.446;0.075;-0.028;0.105;0.108;-0.011;-0.031;-0.018;-4.2;1.1;31.3;48.52;5243;2018-04-16 22:36:19:657
-2.665;-9.342;0.217;-2.631;-9.447;0.075;-0.023;0.101;0.151;-0.001;-0.023;-0.021;-4.2;1.1;31.3;48.52;5253;2018-04-16 22:36:19:667
-2.692;-9.364;0.18;-2.627;-9.448;0.079;-0.065;0.084;0.101;0.011;-0.018;-0.022;-4.2;1.1;31.2;48.52;5263;2018-04-16 22:36:19:677
-2.692;-9.364;0.18;-2.627;-9.448;0.079;-0.065;0.084;0.101;0.02;-0.018;-0.024;-4.2;1.1;31.2;48.52;5272;2018-04-16 22:36:19:686
-2.704;-9.353;0.153;-2.626;-9.448;0.082;-0.079;0.095;0.071;0.02;-0.018;-0.024;-4.2;1.2;31.4;48.52;5283;2018-04-16 22:36:19:697
-2.739;-9.335;0.096;-2.626;-9.448;0.082;-0.079;0.095;0.071;0.028;-0.015;-0.022;-4.2;1.2;31.4;48.52;5293;2018-04-16 22:36:19:707
-2.739;-9.335;0.096;-2.623;-9.449;0.089;-0.115;0.124;-0.007;0.038;-0.01;-0.022;-4.1;1.2;31.4;48.52;5303;2018-04-16 22:36:19:717
-2.743;-9.339;0.065;-2.623;-9.449;0.089;-0.115;0.124;-0.007;0.035;-0.006;-0.018;-4.1;1.2;31.4;48.52;5313;2018-04-16 22:36:19:727
-2.693;-9.367;0.043;-2.621;-9.449;0.096;-0.097;0.089;-0.051;0.033;-0.002;-0.017;-4.1;1.1;31.6;48.52;5323;2018-04-16 22:36:19:737
-2.693;-9.367;0.043;-2.621;-9.449;0.096;-0.097;0.089;-0.051;0.026;0.01;-0.013;-4.1;1.1;31.6;48.52;5333;2018-04-16 22:36:19:747
-2.659;-9.379;0.043;-2.619;-9.45;0.1;-0.04;0.071;-0.057;0.026;0.01;-0.013;-4.1;1.2;31.5;48.52;5343;2018-04-16 22:36:19:757
-2.628;-9.392;0.045;-2.618;-9.45;0.1;-0.026;0.064;-0.056;0.016;0.034;-0.015;-4.1;1.2;31.5;48.52;5353;2018-04-16 22:36:19:767
-2.628;-9.392;0.045;-2.618;-9.45;0.1;-0.026;0.064;-0.056;-0.004;0.06;-0.013;-4.1;1.2;31.5;48.52;5364;2018-04-16 22:36:19:778
-2.606;-9.424;0.047;-2.615;-9.451;0.096;0.009;0.027;-0.05;-0.004;0.06;-0.013;-4.1;1.2;31.5;48.52;5373;2018-04-16 22:36:19:787
-2.606;-9.424;0.047;-2.615;-9.451;0.096;0.009;0.027;-0.05;-0.009;0.068;-0.017;-4.1;1.2;31.5;48.52;5383;2018-04-16 22:36:19:797
-2.606;-9.382;0.068;-2.612;-9.452;0.091;0.006;0.07;-0.022;-0.006;0.05;-0.02;-4.1;1.2;31.4;48.52;5393;2018-04-16 22:36:19:807
-2.637;-9.37;0.059;-2.612;-9.452;0.091;0.006;0.07;-0.022;-0.001;0.035;-0.021;-4.1;1.2;31.4;48.52;5404;2018-04-16 22:36:19:818
-2.641;-9.354;0.063;-2.609;-9.453;0.088;-0.027;0.098;-0.023;-0.001;0.013;-0.02;-4.1;1.2;31.3;48.52;5413;2018-04-16 22:36:19:827
-2.641;-9.354;0.063;-2.609;-9.453;0.088;-0.027;0.098;-0.023;-0.001;0.013;-0.02;-4.1;1.2;31.3;48.52;5423;2018-04-16 22:36:19:837
-2.642;-9.36;0.087;-2.606;-9.454;0.087;-0.036;0.094;0.0;-0.006;-0.004;-0.02;-4.0;1.2;31.3;48.52;5434;2018-04-16 22:36:19:848
-2.643;-9.37;0.084;-2.606;-9.454;0.087;-0.036;0.094;0.0;-0.012;-0.011;-0.021;-4.0;1.2;31.3;48.52;5443;2018-04-16 22:36:19:857
-2.643;-9.37;0.084;-2.602;-9.455;0.085;-0.029;0.083;0.001;-0.016;-0.02;-0.02;-4.0;1.3;31.4;48.52;5453;2018-04-16 22:36:19:867
-2.642;-9.364;0.108;-2.602;-9.455;0.085;-0.029;0.083;0.001;-0.02;-0.026;-0.02;-4.0;1.3;31.4;48.52;5463;2018-04-16 22:36:19:877
-2.668;-9.369;0.123;-2.599;-9.456;0.083;-0.061;0.083;0.028;-0.017;-0.029;-0.021;-4.0;1.3;31.2;48.52;5473;2018-04-16 22:36:19:887
-2.668;-9.369;0.123;-2.599;-9.456;0.083;-0.061;0.083;0.028;-0.016;-0.034;-0.023;-4.0;1.3;31.2;48.52;5483;2018-04-16 22:36:19:897
-2.674;-9.343;0.141;-2.596;-9.457;0.083;-0.079;0.113;0.058;-0.01;-0.033;-0.023;-4.0;1.3;31.3;48.52;5494;2018-04-16 22:36:19:908
-2.674;-9.343;0.141;-2.596;-9.457;0.083;-0.079;0.113;0.058;-0.011;-0.031;-0.024;-4.0;1.3;31.3;49.34;5503;2018-04-16 22:36:19:917
-2.665;-9.317;0.145;-2.592;-9.457;0.083;-0.083;0.121;0.054;-0.011;-0.031;-0.024;-4.0;1.3;31.4;49.34;5513;2018-04-16 22:36:19:927
-2.665;-9.317;0.145;-2.592;-9.457;0.083;-0.083;0.121;0.054;-0.011;-0.013;-0.021;-4.0;1.3;31.4;49.34;5523;2018-04-16 22:36:19:937
-2.664;-9.343;0.141;-2.59;-9.458;0.082;-0.074;0.115;0.059;-0.012;-0.005;-0.017;-4.0;1.3;31.4;49.34;5533;2018-04-16 22:36:19:947
-2.664;-9.367;0.123;-2.59;-9.458;0.082;-0.074;0.115;0.059;-0.012;0.009;-0.017;-4.0;1.3;31.4;49.34;5543;2018-04-16 22:36:19:957
-2.664;-9.367;0.123;-2.587;-9.459;0.08;-0.072;0.09;0.057;-0.015;0.009;-0.016;-4.0;1.3;31.4;49.34;5553;2018-04-16 22:36:19:967
-2.696;-9.373;0.151;-2.587;-9.459;0.08;-0.072;0.09;0.057;-0.012;-0.001;-0.015;-4.0;1.3;31.4;49.34;5562;2018-04-16 22:36:19:976
-2.679;-9.321;0.15;-2.586;-9.459;0.078;-0.092;0.118;0.077;-0.006;-0.009;-0.016;-4.0;1.3;31.2;49.34;5573;2018-04-16 22:36:19:987
-2.679;-9.321;0.15;-2.586;-9.459;0.078;-0.092;0.118;0.077;-0.004;-0.022;-0.012;-4.0;1.3;31.2;49.34;5583;2018-04-16 22:36:19:997
-2.705;-9.321;0.153;-2.585;-9.46;0.08;-0.121;0.139;0.073;0.006;-0.028;-0.011;-4.0;1.3;31.2;49.34;5593;2018-04-16 22:36:20:007
-2.713;-9.352;0.157;-2.585;-9.46;0.082;-0.128;0.108;0.075;0.009;-0.032;-0.009;-4.0;1.3;31.2;49.34;5604;2018-04-16 22:36:20:018
-2.698;-9.36;0.142;-2.585;-9.46;0.082;-0.128;0.108;0.075;0.02;-0.029;-0.01;-4.1;1.3;31.2;49.34;5614;2018-04-16 22:36:20:028
-2.698;-9.36;0.142;-2.584;-9.46;0.088;-0.118;0.086;0.049;0.02;-0.029;-0.01;-4.1;1.3;31.2;49.34;5624;2018-04-16 22:36:20:038
-2.714;-9.39;0.138;-2.584;-9.46;0.088;-0.118;0.086;0.049;0.024;-0.026;-0.012;-4.1;1.3;31.2;49.34;5632;2018-04-16 22:36:20:046
-2.714;-9.39;0.138;-2.583;-9.46;0.095;-0.103;0.108;0.012;0.033;-0.004;-0.011;-4.1;1.3;31.2;49.34;5643;2018-04-16 22:36:20:057
-2.676;-9.322;0.089;-2.583;-9.46;0.095;-0.103;0.108;0.012;0.026;0.013;-0.012;-4.1;1.3;31.2;49.34;5653;2018-04-16 22:36:20:067
-2.66;-9.363;0.074;-2.582;-9.46;0.099;-0.091;0.124;-0.017;0.026;0.013;-0.012;-4.1;1.3;31.2;49.34;5663;2018-04-16 22:36:20:077
-2.66;-9.363;0.074;-2.582;-9.46;0.099;-0.091;0.124;-0.017;0.013;0.046;-0.012;-4.1;1.3;31.1;49.34;5673;2018-04-16 22:36:20:087
-2.653;-9.403;0.044;-2.581;-9.46;0.097;-0.072;0.057;-0.053;0.005;0.056;-0.013;-4.1;1.3;31.1;49.34;5683;2018-04-16 22:36:20:097
-2.638;-9.402;0.043;-2.58;-9.461;0.095;-0.058;0.059;-0.052;-0.002;0.054;-0.013;-4.1;1.3;31.0;49.34;5693;2018-04-16 22:36:20:107
-2.617;-9.36;0.043;-2.58;-9.461;0.095;-0.058;0.059;-0.052;-0.002;0.026;-0.015;-4.1;1.3;31.0;49.34;5703;2018-04-16 22:36:20:117
-2.616;-9.365;0.047;-2.578;-9.461;0.093;-0.031;0.088;-0.05;-0.001;0.006;-0.017;-4.2;1.3;31.1;49.34;5713;2018-04-16 22:36:20:127
-2.616;-9.365;0.047;-2.578;-9.461;0.093;-0.031;0.088;-0.05;-0.001;0.006;-0.017;-4.2;1.3;31.1;49.34;5723;2018-04-16 22:36:20:137
-2.624;-9.364;0.068;-2.576;-9.462;0.092;-0.048;0.098;-0.024;-0.004;-0.001;-0.018;-4.2;1.3;31.0;49.34;5733;2018-04-16 22:36:20:147
-2.624;-9.364;0.068;-2.576;-9.462;0.092;-0.048;0.098;-0.024;-0.004;-0.001;-0.018;-4.2;1.3;31.0;49.34;5743;2018-04-16 22:36:20:157
-2.634;-9.39;0.144;-2.571;-9.463;0.092;-0.063;0.073;0.052;-0.007;-0.021;-0.026;-4.2;1.3;30.9;49.34;5753;2018-04-16 22:36:20:167
-2.647;-9.374;0.146;-2.571;-9.463;0.092;-0.063;0.073;0.052;-0.006;-0.017;-0.026;-4.2;1.3;30.9;49.34;5763;2018-04-16 22:36:20:177
-2.661;-9.355;0.128;-2.567;-9.464;0.092;-0.08;0.09;0.054;-0.007;-0.005;-0.028;-4.2;1.3;31.0;49.34;5773;2018-04-16 22:36:20:187
-2.661;-9.355;0.128;-2.565;-9.465;0.091;-0.095;0.126;0.046;-0.007;0.002;-0.027;-4.2;1.3;31.0;49.34;5783;2018-04-16 22:36:20:197
-2.682;-9.319;0.104;-2.565;-9.465;0.091;-0.095;0.126;0.046;-0.007;0.002;-0.027;-4.2;1.2;30.9;49.34;5793;2018-04-16 22:36:20:207
-2.69;-9.306;0.098;-2.562;-9.466;0.091;-0.129;0.155;0.007;0.0;-0.005;-0.022;-4.2;1.2;30.9;49.34;5803;2018-04-16 22:36:20:217
-2.69;-9.306;0.098;-2.562;-9.466;0.091;-0.129;0.155;0.007;-0.002;-0.018;-0.016;-4.2;1.3;30.8;49.34;5812;2018-04-16 22:36:20:226
-2.68;-9.343;0.126;-2.561;-9.466;0.091;-0.127;0.142;0.017;-0.002;-0.028;-0.013;-4.2;1.3;30.8;49.64;5823;2018-04-16 22:36:20:237
-2.68;-9.343;0.126;-2.561;-9.466;0.091;-0.127;0.142;0.017;-0.009;-0.035;-0.011;-4.2;1.3;30.7;49.64;5833;2018-04-16 22:36:20:247
-2.632;-9.358;0.142;-2.559;-9.466;0.092;-0.073;0.109;0.051;-0.005;-0.042;-0.015;-4.2;1.3;30.7;49.64;5843;2018-04-16 22:36:20:257
-2.601;-9.349;0.162;-2.559;-9.466;0.092;-0.073;0.109;0.051;-0.001;-0.044;-0.012;-4.2;1.3;30.8;49.64;5853;2018-04-16 22:36:20:267
-2.591;-9.357;0.175;-2.557;-9.467;0.095;-0.038;0.119;0.071;0.005;-0.039;-0.016;-4.2;1.3;30.8;49.64;5863;2018-04-16 22:36:20:277
-2.591;-9.357;0.175;-2.557;-9.467;0.095;-0.038;0.119;0.071;0.013;-0.029;-0.02;-4.2;1.2;30.9;49.64;5873;2018-04-16 22:36:20:287
-2.6;-9.337;0.183;-2.554;-9.468;0.099;-0.046;0.13;0.084;0.013;-0.029;-0.02;-4.2;1.2;30.9;49.64;5883;2018-04-16 22:36:20:297
-2.632;-9.385;0.163;-2.554;-9.468;0.099;-0.046;0.13;0.084;0.017;-0.01;-0.024;-4.2;1.2;30.8;49.64;5893;2018-04-16 22:36:20:307
-2.632;-9.385;0.163;-2.55;-9.469;0.104;-0.092;0.106;0.041;0.024;0.002;-0.027;-4.2;1.2;30.8;49.64;5903;2018-04-16 22:36:20:317
-2.653;-9.372;0.111;-2.55;-9.469;0.104;-0.092;0.106;0.041;0.028;0.015;-0.027;-4.2;1.3;30.7;49.64;5914;2018-04-16 22:36:20:328
-2.644;-9.357;0.059;-2.547;-9.47;0.108;-0.111;0.1;-0.049;0.027;0.016;-0.024;-4.2;1.3;30.7;49.64;5923;2018-04-16 22:36:20:337
-2.644;-9.357;0.059;-2.547;-9.47;0.108;-0.111;0.1;-0.049;0.022;0.013;-0.021;-4.2;1.3;30.7;49.64;5933;2018-04-16 22:36:20:347
-2.634;-9.371;0.043;-2.544;-9.47;0.11;-0.09;0.099;-0.067;0.022;0.013;-0.021;-4.2;1.3;30.7;49.64;5943;2018-04-16 22:36:20:357
-2.598;-9.346;0.065;-2.544;-9.47;0.11;-0.09;0.099;-0.067;0.01;0.007;-0.018;-4.1;1.3;30.6;49.64;5953;2018-04-16 22:36:20:367
-2.598;-9.346;0.065;-2.541;-9.471;0.11;-0.062;0.144;-0.042;-0.001;-0.007;-0.017;-4.1;1.3;30.8;49.64;5963;2018-04-16 22:36:20:377
-2.602;-9.33;0.099;-2.541;-9.471;0.11;-0.062;0.144;-0.042;-0.007;-0.015;-0.018;-4.1;1.3;30.8;49.64;5973;2018-04-16 22:36:20:387
-2.612;-9.313;0.169;-2.539;-9.472;0.11;-0.073;0.158;0.059;-0.007;-0.024;-0.018;-4.1;1.3;30.9;49.64;5983;2018-04-16 22:36:20:397
-2.612;-9.313;0.169;-2.539;-9.472;0.11;-0.073;0.158;0.059;-0.007;-0.024;-0.018;-4.1;1.3;30.9;49.64;5993;2018-04-16 22:36:20:407
-2.652;-9.306;0.243;-2.537;-9.472;0.113;-0.114;0.166;0.13;0.005;-0.027;-0.02;-4.1;1.3;30.9;49.64;6003;2018-04-16 22:36:20:417
-2.717;-9.299;0.259;-2.537;-9.472;0.113;-0.114;0.166;0.13;0.017;-0.024;-0.018;-4.1;1.3;30.8;49.64;6013;2018-04-16 22:36:20:427
-2.717;-9.299;0.259;-2.536;-9.472;0.12;-0.177;0.18;0.139;0.033;-0.027;-0.02;-4.1;1.3;30.8;49.64;6024;2018-04-16 22:36:20:438
-2.739;-9.278;0.217;-2.536;-9.472;0.125;-0.203;0.195;0.092;0.049;-0.038;-0.016;-4.1;1.3;30.9;49.64;6033;2018-04-16 22:36:20:447
-2.774;-9.298;0.192;-2.536;-9.472;0.125;-0.203;0.195;0.092;0.049;-0.038;-0.016;-4.1;1.3;30.9;49.64;6043;2018-04-16 22:36:20:457
-2.774;-9.298;0.192;-2.536;-9.472;0.14;-0.238;0.172;0.032;0.07;-0.057;-0.013;-4.1;1.2;30.9;49.64;6053;2018-04-16 22:36:20:467
-2.783;-9.312;0.142;-2.536;-9.472;0.14;-0.238;0.172;0.032;0.082;-0.068;-0.005;-4.1;1.2;30.9;49.64;6063;2018-04-16 22:36:20:477
-2.734;-9.325;0.072;-2.537;-9.471;0.159;-0.217;0.145;-0.045;0.084;-0.068;0.001;-4.1;1.3;31.0;49.64;6073;2018-04-16 22:36:20:487
-2.734;-9.325;0.072;-2.537;-9.471;0.159;-0.217;0.145;-0.045;0.084;-0.068;0.001;-4.1;1.3;31.0;49.64;6083;2018-04-16 22:36:20:497
-2.696;-9.322;0.048;-2.539;-9.471;0.177;-0.157;0.149;-0.129;0.086;-0.065;0.001;-4.0;1.3;31.0;49.64;6093;2018-04-16 22:36:20:507
-2.672;-9.34;0.043;-2.539;-9.471;0.177;-0.157;0.149;-0.129;0.083;-0.054;-0.001;-4.0;1.3;31.0;49.64;6103;2018-04-16 22:36:20:517
-2.672;-9.34;0.043;-2.539;-9.47;0.193;-0.123;0.134;-0.15;0.078;-0.033;-0.006;-4.0;1.3;31.0;49.64;6114;2018-04-16 22:36:20:528
-2.662;-9.347;0.043;-2.539;-9.47;0.193;-0.123;0.134;-0.15;0.081;-0.017;-0.009;-4.0;1.4;31.0;49.64;6123;2018-04-16 22:36:20:537
-2.662;-9.347;0.043;-2.539;-9.47;0.199;-0.118;0.129;-0.159;0.081;-0.017;-0.009;-4.0;1.4;31.0;49.64;6133;2018-04-16 22:36:20:547
-2.631;-9.351;0.041;-2.535;-9.471;0.213;-0.096;0.12;-0.172;0.077;0.01;-0.012;-4.0;1.4;31.0;49.64;6143;2018-04-16 22:36:20:557
-2.631;-9.351;0.041;-2.535;-9.471;0.213;-0.096;0.12;-0.172;0.064;0.1;-0.028;-4.0;1.4;31.0;49.64;6153;2018-04-16 22:36:20:567
-2.638;-9.398;-0.031;-2.535;-9.471;0.213;-0.096;0.12;-0.172;0.068;0.121;-0.028;-4.0;1.5;30.8;49.82;6163;2018-04-16 22:36:20:577
-2.638;-9.398;-0.031;-2.531;-9.472;0.216;-0.116;0.074;-0.289;0.068;0.121;-0.028;-4.0;1.5;30.8;49.82;6173;2018-04-16 22:36:20:587
-2.634;-9.392;-0.072;-2.531;-9.472;0.216;-0.116;0.074;-0.289;0.068;0.134;-0.037;-3.9;1.5;30.8;49.82;6183;2018-04-16 22:36:20:597
-2.65;-9.347;-0.087;-2.525;-9.473;0.219;-0.111;0.096;-0.31;0.064;0.153;-0.042;-3.9;1.6;30.8;49.82;6193;2018-04-16 22:36:20:607
-2.65;-9.347;-0.087;-2.525;-9.473;0.219;-0.111;0.096;-0.31;0.064;0.153;-0.042;-3.9;1.6;30.8;49.82;6202;2018-04-16 22:36:20:616
-2.67;-9.327;-0.062;-2.52;-9.475;0.217;-0.15;0.148;-0.28;0.049;0.17;-0.042;-3.9;1.6;30.8;49.82;6213;2018-04-16 22:36:20:627
-2.686;-9.301;-0.03;-2.52;-9.475;0.217;-0.15;0.148;-0.28;0.043;0.188;-0.04;-3.9;1.6;30.8;49.82;6223;2018-04-16 22:36:20:637
-2.686;-9.301;-0.03;-2.516;-9.476;0.212;-0.184;0.182;-0.239;0.033;0.204;-0.037;-4.0;1.7;30.8;49.82;6233;2018-04-16 22:36:20:647
-2.711;-9.31;-0.016;-2.516;-9.476;0.212;-0.184;0.182;-0.239;0.028;0.208;-0.034;-4.0;1.7;30.8;49.82;6243;2018-04-16 22:36:20:657
-2.737;-9.358;0.004;-2.512;-9.477;0.205;-0.203;0.16;-0.204;0.032;0.204;-0.032;-4.0;1.7;30.9;49.82;6253;2018-04-16 22:36:20:667
-2.737;-9.374;0.04;-2.511;-9.477;0.201;-0.278;0.103;-0.161;0.042;0.191;-0.026;-4.0;1.7;30.9;49.82;6263;2018-04-16 22:36:20:677
-2.789;-9.374;0.04;-2.511;-9.477;0.201;-0.278;0.103;-0.161;0.039;0.191;-0.017;-4.0;1.7;30.8;49.82;6273;2018-04-16 22:36:20:687
-2.756;-9.355;0.043;-2.511;-9.477;0.201;-0.278;0.103;-0.161;0.034;0.195;-0.01;-4.0;1.7;30.8;49.82;6283;2018-04-16 22:36:20:697
-2.756;-9.355;0.043;-2.513;-9.477;0.196;-0.239;0.151;-0.152;0.034;0.195;-0.01;-4.1;1.8;30.8;49.82;6292;2018-04-16 22:36:20:706
-2.752;-9.298;0.023;-2.513;-9.477;0.196;-0.239;0.151;-0.152;0.028;0.189;0.001;-4.1;1.8;30.8;49.82;6302;2018-04-16 22:36:20:716
-2.772;-9.313;0.044;-2.517;-9.476;0.19;-0.254;0.159;-0.147;0.026;0.169;0.012;-4.1;1.7;30.8;49.82;6312;2018-04-16 22:36:20:726
-2.772;-9.313;0.044;-2.517;-9.476;0.19;-0.254;0.159;-0.147;0.017;0.154;0.027;-4.1;1.7;30.8;49.82;6323;2018-04-16 22:36:20:737
-2.774;-9.309;0.074;-2.526;-9.474;0.183;-0.247;0.165;-0.109;0.006;0.145;0.037;-4.1;1.8;30.9;49.82;6333;2018-04-16 22:36:20:747
-2.713;-9.333;0.043;-2.526;-9.474;0.183;-0.247;0.165;-0.109;-0.01;0.127;0.051;-4.1;1.8;30.9;49.82;6342;2018-04-16 22:36:20:756
-2.713;-9.333;0.043;-2.539;-9.471;0.174;-0.176;0.144;-0.131;-0.016;0.084;0.057;-4.2;1.8;30.8;49.82;6353;2018-04-16 22:36:20:767
-2.699;-9.298;0.042;-2.539;-9.471;0.174;-0.176;0.144;-0.131;-0.009;0.026;0.059;-4.2;1.8;30.8;49.82;6363;2018-04-16 22:36:20:777
-2.685;-9.249;0.045;-2.552;-9.467;0.173;-0.133;0.218;-0.127;0.007;-0.038;0.059;-4.2;1.9;30.8;49.82;6373;2018-04-16 22:36:20:787
-2.727;-9.222;0.114;-2.552;-9.467;0.173;-0.133;0.218;-0.127;0.039;-0.106;0.055;-4.2;1.9;30.8;49.82;6383;2018-04-16 22:36:20:797
-2.727;-9.222;0.114;-2.565;-9.463;0.184;-0.191;0.227;-0.068;0.039;-0.106;0.055;-4.2;1.9;30.8;49.82;6393;2018-04-16 22:36:20:807
-2.716;-9.175;0.079;-2.565;-9.463;0.184;-0.191;0.227;-0.068;0.064;-0.093;0.068;-4.3;1.9;30.7;49.82;6402;2018-04-16 22:36:20:816
-2.714;-9.13;-0.014;-2.579;-9.459;0.2;-0.119;0.318;-0.187;0.086;-0.056;0.068;-4.3;1.9;30.6;49.82;6413;2018-04-16 22:36:20:827
-2.714;-9.13;-0.014;-2.579;-9.459;0.2;-0.119;0.318;-0.187;0.086;-0.056;0.068;-4.3;1.9;30.6;49.82;6422;2018-04-16 22:36:20:836
-2.574;-9.114;-0.138;-2.596;-9.454;0.22;0.022;0.341;-0.358;0.12;-0.026;0.088;-4.3;1.9;30.6;49.82;6433;2018-04-16 22:36:20:847
-2.567;-9.238;-0.163;-2.596;-9.454;0.22;0.022;0.341;-0.358;0.123;0.043;0.081;-4.3;1.9;30.6;49.82;6443;2018-04-16 22:36:20:857
-2.567;-9.238;-0.163;-2.611;-9.45;0.235;0.032;0.166;-0.403;0.089;0.13;0.082;-4.4;1.9;30.7;49.82;6453;2018-04-16 22:36:20:867
-2.564;-9.418;-0.181;-2.611;-9.45;0.235;0.032;0.166;-0.403;0.034;0.225;0.097;-4.4;1.9;30.7;49.82;6463;2018-04-16 22:36:20:877
-2.344;-9.487;-0.206;-2.63;-9.445;0.226;0.203;-0.037;-0.422;-0.024;0.285;0.114;-4.5;2.0;30.6;49.82;6473;2018-04-16 22:36:20:887
-2.344;-9.487;-0.206;-2.63;-9.445;0.226;0.203;-0.037;-0.422;-0.078;0.298;0.126;-4.5;2.0;30.6;49.62;6483;2018-04-16 22:36:20:897
-2.151;-9.538;-0.171;-2.652;-9.439;0.192;0.5;-0.099;-0.363;-0.078;0.298;0.126;-4.5;2.0;30.7;49.62;6493;2018-04-16 22:36:20:907
-1.864;-9.631;-0.139;-2.652;-9.439;0.192;0.5;-0.099;-0.363;-0.123;0.216;0.162;-4.5;2.0;30.7;49.62;6503;2018-04-16 22:36:20:917
-1.864;-9.631;-0.139;-2.676;-9.433;0.157;0.851;-0.257;-0.266;-0.136;0.106;0.172;-4.6;2.0;30.8;49.62;6513;2018-04-16 22:36:20:927
-1.656;-9.793;-0.107;-2.676;-9.433;0.157;0.851;-0.257;-0.266;-0.137;-0.034;0.178;-4.6;2.0;30.8;49.62;6523;2018-04-16 22:36:20:937
-1.372;-9.861;-0.031;-2.699;-9.427;0.136;1.236;-0.414;-0.186;-0.131;-0.193;0.177;-4.6;2.0;30.8;49.62;6533;2018-04-16 22:36:20:947
-1.372;-9.861;-0.031;-2.699;-9.427;0.136;1.236;-0.414;-0.186;-0.121;-0.352;0.161;-4.6;2.0;30.8;49.62;6543;2018-04-16 22:36:20:957
-1.183;-9.844;0.074;-2.714;-9.423;0.137;1.531;-0.421;-0.063;-0.1;-0.502;0.134;-4.6;2.1;30.7;49.62;6553;2018-04-16 22:36:20:967
-1.188;-9.875;0.274;-2.714;-9.423;0.137;1.531;-0.421;-0.063;-0.064;-0.672;0.084;-4.6;2.1;30.7;49.62;6563;2018-04-16 22:36:20:977
-1.188;-9.875;0.274;-2.715;-9.422;0.162;1.512;-0.456;0.168;-0.064;-0.672;0.084;-4.6;2.0;30.7;49.62;6573;2018-04-16 22:36:20:987
-1.222;-9.849;0.424;-2.715;-9.422;0.162;1.512;-0.456;0.168;-0.018;-0.748;0.026;-4.6;2.0;30.7;49.62;6583;2018-04-16 22:36:20:997
-1.222;-9.849;0.424;-2.699;-9.426;0.205;1.123;-0.373;0.312;0.028;-0.749;-0.044;-4.6;2.0;30.7;49.62;6593;2018-04-16 22:36:21:007
-1.828;-9.814;0.587;-2.685;-9.429;0.234;0.857;-0.385;0.352;0.054;-0.743;-0.082;-4.6;2.1;30.7;49.62;6603;2018-04-16 22:36:21:017
-2.37;-9.677;0.67;-2.685;-9.429;0.234;0.857;-0.385;0.352;0.16;-0.65;-0.133;-4.5;2.1;30.7;49.62;6613;2018-04-16 22:36:21:027
-2.37;-9.677;0.67;-2.653;-9.436;0.305;0.063;-0.031;0.382;0.281;-0.336;-0.183;-4.5;2.1;30.7;49.62;6623;2018-04-16 22:36:21:037
-2.879;-9.355;0.667;-2.653;-9.436;0.305;0.063;-0.031;0.382;0.281;-0.336;-0.183;-4.4;2.1;30.7;49.62;6633;2018-04-16 22:36:21:047
-3.011;-9.183;0.593;-2.62;-9.443;0.375;-0.39;0.26;0.217;0.319;-0.089;-0.186;-4.4;2.1;30.7;49.62;6643;2018-04-16 22:36:21:057
-2.962;-9.052;0.341;-2.62;-9.443;0.375;-0.39;0.26;0.217;0.296;0.516;-0.166;-4.3;2.2;30.7;49.62;6653;2018-04-16 22:36:21:067
-2.962;-9.052;0.341;-2.597;-9.448;0.408;-0.319;0.419;-0.195;0.222;0.789;-0.158;-4.3;2.2;30.7;49.62;6663;2018-04-16 22:36:21:077
-2.847;-9.157;0.043;-2.587;-9.451;0.401;-0.26;0.294;-0.358;0.184;0.886;-0.148;-4.3;2.2;30.8;49.62;6673;2018-04-16 22:36:21:087
-2.847;-9.157;0.043;-2.587;-9.451;0.401;-0.26;0.294;-0.358;0.093;0.999;-0.106;-4.3;2.2;30.8;49.62;6683;2018-04-16 22:36:21:097
-2.503;-9.427;-0.275;-2.575;-9.456;0.362;0.072;0.028;-0.637;0.062;0.921;-0.084;-4.2;2.3;30.8;49.62;6694;2018-04-16 22:36:21:108
-2.3;-9.459;-0.358;-2.575;-9.456;0.362;0.072;0.028;-0.637;0.044;0.767;-0.068;-4.2;2.3;30.8;49.62;6703;2018-04-16 22:36:21:117
-2.3;-9.459;-0.358;-2.565;-9.46;0.324;0.28;0.023;-0.677;0.044;0.767;-0.068;-4.2;2.3;31.0;49.62;6713;2018-04-16 22:36:21:127
-2.307;-9.349;-0.257;-2.565;-9.46;0.324;0.28;0.023;-0.677;0.001;0.491;-0.048;-4.2;2.3;31.0;49.62;6723;2018-04-16 22:36:21:137
-2.443;-9.297;-0.028;-2.558;-9.462;0.294;0.137;0.123;-0.389;-0.039;0.326;-0.034;-4.2;2.4;31.1;49.62;6733;2018-04-16 22:36:21:147
-2.443;-9.297;-0.028;-2.558;-9.463;0.283;0.102;0.208;-0.243;-0.071;0.188;-0.01;-4.2;2.4;31.1;49.62;6743;2018-04-16 22:36:21:157
-2.509;-9.178;0.146;-2.558;-9.463;0.283;0.102;0.208;-0.243;-0.071;0.188;-0.01;-4.2;2.4;31.1;49.62;6753;2018-04-16 22:36:21:167
-2.509;-9.178;0.146;-2.563;-9.462;0.263;-0.004;0.228;0.048;-0.094;-0.023;0.044;-4.2;2.4;31.1;49.62;6763;2018-04-16 22:36:21:177
-2.582;-9.328;0.438;-2.569;-9.461;0.259;-0.013;0.133;0.179;-0.072;-0.101;0.059;-4.3;2.4;31.1;49.62;6773;2018-04-16 22:36:21:187
-2.582;-9.328;0.438;-2.569;-9.461;0.259;-0.013;0.133;0.179;-0.002;-0.187;0.067;-4.3;2.4;31.1;49.62;6783;2018-04-16 22:36:21:197
-2.686;-9.379;0.698;-2.583;-9.456;0.273;-0.103;0.077;0.425;0.061;-0.209;0.086;-4.3;2.4;31.2;49.62;6793;2018-04-16 22:36:21:207
-2.623;-9.151;0.782;-2.583;-9.456;0.273;-0.103;0.077;0.425;0.121;-0.2;0.101;-4.3;2.4;31.2;50.64;6803;2018-04-16 22:36:21:217
-2.623;-9.151;0.782;-2.602;-9.45;0.311;-0.041;0.389;0.515;0.18;-0.164;0.109;-4.2;2.5;31.1;50.64;6813;2018-04-16 22:36:21:227
-2.684;-8.902;0.854;-2.602;-9.45;0.311;-0.041;0.389;0.515;0.237;-0.105;0.121;-4.2;2.5;31.1;50.64;6823;2018-04-16 22:36:21:237
-2.772;-8.771;0.789;-2.626;-9.442;0.366;-0.088;0.684;0.459;0.297;-0.044;0.134;-4.2;2.5;31.1;50.64;6833;2018-04-16 22:36:21:247
-2.772;-8.771;0.789;-2.626;-9.442;0.366;-0.088;0.684;0.459;0.356;0.013;0.153;-4.2;2.5;31.1;50.64;6843;2018-04-16 22:36:21:257
-2.892;-8.868;0.666;-2.657;-9.43;0.434;-0.235;0.562;0.231;0.411;0.061;0.169;-4.3;2.6;31.1;50.64;6853;2018-04-16 22:36:21:267
-2.892;-8.868;0.666;-2.657;-9.43;0.434;-0.235;0.562;0.231;0.411;0.061;0.169;-4.3;2.6;31.1;50.64;6862;2018-04-16 22:36:21:276
-2.95;-9.215;0.35;-2.696;-9.415;0.514;-0.253;0.199;-0.164;0.464;0.105;0.197;-4.3;2.7;31.1;50.64;6872;2018-04-16 22:36:21:286
-2.81;-9.509;0.127;-2.696;-9.415;0.514;-0.253;0.199;-0.164;0.49;0.099;0.235;-4.3;2.7;31.1;50.64;6882;2018-04-16 22:36:21:296
-2.637;-9.72;0.004;-2.741;-9.397;0.597;-0.014;-0.199;-0.526;0.492;0.066;0.248;-4.3;2.8;31.0;50.64;6893;2018-04-16 22:36:21:307
-2.637;-9.72;0.004;-2.741;-9.397;0.597;-0.014;-0.199;-0.526;0.498;-0.013;0.255;-4.3;2.8;31.0;50.64;6903;2018-04-16 22:36:21:317
-2.522;-9.756;-0.051;-2.788;-9.377;0.685;0.265;-0.379;-0.737;0.506;-0.082;0.258;-4.4;3.0;31.0;50.64;6913;2018-04-16 22:36:21:327
-2.234;-9.705;-0.071;-2.788;-9.377;0.685;0.265;-0.379;-0.737;0.506;-0.082;0.258;-4.4;3.0;31.0;50.64;6922;2018-04-16 22:36:21:336
-2.234;-9.705;-0.071;-2.829;-9.357;0.781;0.662;-0.277;-0.861;0.525;-0.147;0.255;-4.5;3.1;31.0;50.64;6932;2018-04-16 22:36:21:346
-2.075;-9.562;0.011;-2.829;-9.357;0.781;0.662;-0.277;-0.861;0.569;-0.206;0.232;-4.5;3.1;31.0;50.64;6942;2018-04-16 22:36:21:356
-1.793;-9.319;0.029;-2.86;-9.338;0.891;0.99;-0.038;-0.868;0.589;-0.197;0.208;-4.6;3.3;30.9;50.64;6953;2018-04-16 22:36:21:367
-1.793;-9.319;0.029;-2.86;-9.338;0.891;0.99;-0.038;-0.868;0.605;-0.161;0.18;-4.6;3.3;30.9;50.64;6962;2018-04-16 22:36:21:376
-1.63;-9.335;0.034;-2.881;-9.32;1.004;1.251;-0.015;-0.971;0.605;-0.161;0.18;-4.7;3.4;30.7;50.64;6973;2018-04-16 22:36:21:387
-1.444;-9.483;-0.012;-2.881;-9.32;1.004;1.251;-0.015;-0.971;0.613;-0.044;0.158;-4.7;3.4;30.7;50.64;6982;2018-04-16 22:36:21:396
-1.444;-9.483;-0.012;-2.895;-9.304;1.106;1.465;-0.243;-1.131;0.602;0.064;0.133;-4.7;3.6;30.6;50.64;6993;2018-04-16 22:36:21:407
-1.414;-9.676;-0.079;-2.895;-9.304;1.106;1.465;-0.243;-1.131;0.564;0.241;0.104;-4.7;3.6;30.6;50.64;7003;2018-04-16 22:36:21:417
-1.35;-9.742;-0.142;-2.906;-9.291;1.185;1.556;-0.451;-1.327;0.544;0.343;0.097;-4.8;3.8;30.5;50.64;7013;2018-04-16 22:36:21:427
-1.275;-9.93;-0.201;-2.906;-9.291;1.185;1.556;-0.451;-1.327;0.506;0.423;0.086;-4.8;3.8;30.5;50.64;7023;2018-04-16 22:36:21:437
-1.275;-9.93;-0.201;-2.92;-9.279;1.242;1.638;-0.834;-1.45;0.445;0.472;0.071;-4.7;4.0;30.5;50.64;7033;2018-04-16 22:36:21:447
-1.158;-10.173;-0.237;-2.92;-9.279;1.242;1.638;-0.834;-1.45;0.445;0.472;0.071;-4.7;4.0;30.5;50.64;7043;2018-04-16 22:36:21:457
-1.067;-10.336;-0.205;-2.934;-9.27;1.276;1.829;-1.008;-1.487;0.335;0.463;0.05;-4.7;4.3;30.4;50.64;7053;2018-04-16 22:36:21:467
-1.067;-10.336;-0.205;-2.934;-9.27;1.276;1.829;-1.008;-1.487;0.285;0.315;0.054;-4.7;4.3;30.4;50.64;7063;2018-04-16 22:36:21:477
-0.962;-10.507;-0.198;-2.947;-9.261;1.308;1.985;-1.246;-1.505;0.269;0.161;0.05;-4.7;4.5;30.4;50.64;7073;2018-04-16 22:36:21:487
-1.008;-10.779;-0.154;-2.947;-9.261;1.308;1.985;-1.246;-1.505;0.23;-0.001;0.043;-4.7;4.5;30.4;50.64;7083;2018-04-16 22:36:21:497
-1.008;-10.779;-0.154;-2.954;-9.253;1.35;1.903;-1.615;-1.47;0.169;-0.155;0.04;-4.7;4.9;30.3;50.64;7093;2018-04-16 22:36:21:507
-1.119;-10.992;-0.002;-2.954;-9.253;1.35;1.903;-1.615;-1.47;0.169;-0.155;0.04;-4.7;4.9;30.3;50.64;7103;2018-04-16 22:36:21:517
-1.377;-11.267;0.217;-2.952;-9.249;1.385;1.655;-1.929;-1.272;0.06;-0.345;0.029;-4.8;5.2;30.2;50.64;7113;2018-04-16 22:36:21:527
-1.377;-11.267;0.217;-2.952;-9.249;1.385;1.655;-1.929;-1.272;-0.037;-0.505;-0.007;-4.8;5.2;30.2;49.34;7123;2018-04-16 22:36:21:537
-1.632;-11.185;0.566;-2.935;-9.251;1.406;1.303;-1.934;-0.839;-0.097;-0.566;-0.077;-4.8;5.5;30.1;49.34;7132;2018-04-16 22:36:21:546
-2.052;-10.769;1.073;-2.935;-9.251;1.406;1.303;-1.934;-0.839;-0.125;-0.552;-0.155;-4.8;5.5;30.1;49.34;7142;2018-04-16 22:36:21:556
-2.37;-10.296;1.258;-2.89;-9.264;1.415;0.737;-1.365;-0.223;-0.114;-0.4;-0.268;-4.8;5.8;30.1;49.34;7153;2018-04-16 22:36:21:567
-2.37;-10.296;1.258;-2.89;-9.264;1.415;0.737;-1.365;-0.223;-0.114;-0.4;-0.268;-4.8;5.8;30.1;49.34;7163;2018-04-16 22:36:21:577
-2.579;-9.949;1.262;-2.824;-9.284;1.412;0.246;-0.665;-0.151;-0.103;-0.242;-0.331;-4.8;6.0;30.0;49.34;7173;2018-04-16 22:36:21:587
-2.834;-9.609;0.936;-2.824;-9.284;1.412;0.246;-0.665;-0.151;-0.109;0.159;-0.43;-4.8;6.0;30.0;49.34;7183;2018-04-16 22:36:21:597
-3.0;-9.463;0.504;-2.75;-9.311;1.386;-0.159;-0.253;-0.595;-0.137;0.357;-0.468;-4.8;6.3;30.0;49.34;7192;2018-04-16 22:36:21:606
-3.0;-9.463;0.504;-2.75;-9.311;1.386;-0.159;-0.253;-0.595;-0.137;0.357;-0.468;-4.8;6.3;30.0;49.34;7203;2018-04-16 22:36:21:617
-3.189;-9.312;-0.174;-2.676;-9.342;1.318;-0.513;0.03;-1.491;-0.209;0.511;-0.496;-4.8;6.6;30.0;49.34;7213;2018-04-16 22:36:21:627
-3.267;-9.074;-0.747;-2.676;-9.342;1.318;-0.513;0.03;-1.491;-0.492;0.65;-0.542;-4.8;6.6;30.0;49.34;7223;2018-04-16 22:36:21:637
-3.267;-9.074;-0.747;-2.597;-9.384;1.17;-0.674;0.368;-1.932;-0.707;0.641;-0.557;-4.8;6.8;30.0;49.34;7233;2018-04-16 22:36:21:647
-3.367;-8.872;-0.644;-2.597;-9.384;1.17;-0.674;0.368;-1.932;-0.707;0.641;-0.557;-4.8;6.8;30.0;49.34;7243;2018-04-16 22:36:21:657
-3.642;-8.845;-0.153;-2.517;-9.431;0.944;-0.983;0.626;-1.289;-1.064;0.637;-0.545;-4.8;7.0;29.9;49.34;7254;2018-04-16 22:36:21:668
-3.642;-8.845;-0.153;-2.517;-9.431;0.944;-0.983;0.626;-1.289;-1.269;0.668;-0.522;-4.8;7.0;29.9;49.34;7263;2018-04-16 22:36:21:677
-4.087;-9.092;0.109;-2.446;-9.475;0.647;-1.641;0.383;-0.538;-1.431;0.718;-0.495;-5.0;7.1;30.0;49.34;7273;2018-04-16 22:36:21:687
-4.787;-9.483;0.151;-2.446;-9.475;0.647;-1.641;0.383;-0.538;-1.583;0.794;-0.45;-5.0;7.1;30.0;49.34;7282;2018-04-16 22:36:21:696
-4.787;-9.483;0.151;-2.373;-9.51;0.307;-2.583;-0.023;-0.247;-1.638;0.81;-0.401;-5.1;7.1;29.9;49.34;7292;2018-04-16 22:36:21:706
-5.23;-9.639;-0.092;-2.373;-9.51;0.307;-2.583;-0.023;-0.247;-1.652;0.777;-0.342;-5.1;7.1;29.9;49.34;7303;2018-04-16 22:36:21:717
-5.386;-9.716;-0.166;-2.311;-9.53;-0.046;-3.075;-0.185;-0.12;-1.652;0.777;-0.342;-5.3;7.1;30.0;49.34;7312;2018-04-16 22:36:21:726
-5.188;-9.699;0.472;-2.311;-9.53;-0.046;-3.075;-0.185;-0.12;-1.615;0.655;-0.23;-5.3;7.1;30.0;49.34;7323;2018-04-16 22:36:21:737
-5.188;-9.699;0.472;-2.271;-9.533;-0.372;-2.792;-0.072;1.198;-1.545;0.597;-0.173;-5.5;6.9;29.8;49.34;7333;2018-04-16 22:36:21:747
-4.629;-9.385;1.719;-2.271;-9.533;-0.372;-2.792;-0.072;1.198;-1.302;0.574;-0.125;-5.5;6.9;29.8;49.34;7343;2018-04-16 22:36:21:757
-4.514;-9.329;2.363;-2.243;-9.525;-0.641;-2.272;0.196;3.004;-1.103;0.633;-0.134;-5.7;6.7;29.9;49.34;7353;2018-04-16 22:36:21:767
-4.415;-9.424;2.222;-2.243;-9.525;-0.641;-2.272;0.196;3.004;-0.966;0.789;-0.14;-5.7;6.7;29.9;49.34;7363;2018-04-16 22:36:21:777
-4.415;-9.424;2.222;-2.205;-9.517;-0.859;-2.42;-0.174;2.941;-0.966;0.789;-0.14;-5.9;6.4;29.7;49.34;7373;2018-04-16 22:36:21:787
-4.976;-10.264;1.872;-2.205;-9.517;-0.859;-2.42;-0.174;2.941;-0.871;1.002;-0.094;-5.9;6.4;29.7;49.34;7383;2018-04-16 22:36:21:797
-4.286;-10.184;0.643;-2.177;-9.502;-1.065;-2.502;-0.832;2.279;-0.821;1.007;0.02;-6.2;6.0;29.6;49.34;7393;2018-04-16 22:36:21:807
-3.856;-10.034;0.127;-2.17;-9.494;-1.154;-1.686;-0.54;1.281;-0.817;0.963;0.026;-6.3;5.9;29.7;49.34;7403;2018-04-16 22:36:21:817
-3.856;-10.034;0.127;-2.17;-9.494;-1.154;-1.686;-0.54;1.281;-0.817;0.963;0.026;-6.3;5.9;29.7;49.34;7412;2018-04-16 22:36:21:826
-1.712;-9.943;-1.583;-2.17;-9.494;-1.154;-1.686;-0.54;1.281;-1.053;0.947;-0.076;-6.9;5.1;29.4;49.34;7423;2018-04-16 22:36:21:837
-1.712;-9.943;-1.583;-2.103;-9.457;-1.519;1.258;-0.463;0.292;-1.175;1.027;-0.127;-6.9;5.1;29.4;49.34;7433;2018-04-16 22:36:21:847
-0.195;-10.13;-0.323;-2.103;-9.457;-1.519;1.258;-0.463;0.292;-0.966;1.177;-0.326;-7.9;4.0;29.3;49.34;7443;2018-04-16 22:36:21:857
-0.158;-10.254;-0.186;-1.992;-9.444;-1.736;1.834;-0.81;1.551;-0.618;1.234;-0.474;-7.9;4.0;29.3;49.34;7453;2018-04-16 22:36:21:867
-0.298;-10.205;-0.474;-1.992;-9.444;-1.736;1.834;-0.81;1.551;-0.132;1.382;-0.585;-8.5;3.1;29.3;50.73;7463;2018-04-16 22:36:21:877
-0.298;-10.205;-0.474;-1.832;-9.458;-1.832;1.463;-0.735;1.218;0.123;1.313;-0.657;-8.5;3.1;29.3;50.73;7473;2018-04-16 22:36:21:887
-0.788;-10.442;-1.07;-1.752;-9.471;-1.842;0.965;-0.971;0.772;0.123;1.313;-0.657;-9.3;2.6;29.3;50.73;7483;2018-04-16 22:36:21:897
-2.576;-10.274;-1.593;-1.582;-9.506;-1.817;-0.994;-0.767;0.224;0.307;0.687;-0.768;-9.3;2.6;29.3;50.73;7493;2018-04-16 22:36:21:907
-2.576;-10.274;-1.593;-1.582;-9.506;-1.817;-0.994;-0.767;0.224;0.197;0.48;-0.715;-10.0;2.0;28.5;50.73;7503;2018-04-16 22:36:21:917
-2.867;-9.608;-1.101;-1.507;-9.52;-1.808;-1.36;-0.088;0.707;0.197;0.48;-0.715;-10.0;2.0;28.5;50.73;7513;2018-04-16 22:36:21:927
-2.867;-9.608;-1.101;-1.507;-9.52;-1.808;-1.36;-0.088;0.707;-0.01;0.21;-0.618;-9.9;2.1;29.3;50.73;7523;2018-04-16 22:36:21:937
-3.711;-8.645;-1.511;-1.416;-9.53;-1.829;-2.295;0.885;0.318;-0.191;0.078;-0.519;-9.9;2.1;29.3;50.73;7533;2018-04-16 22:36:21:947
-3.953;-8.329;-0.602;-1.416;-9.53;-1.829;-2.295;0.885;0.318;-0.522;-0.231;-0.417;-10.5;1.5;28.4;50.73;7543;2018-04-16 22:36:21:957
-3.953;-8.329;-0.602;-1.363;-9.521;-1.916;-2.623;1.206;1.592;-0.681;-0.263;-0.347;-10.5;1.5;28.4;50.73;7553;2018-04-16 22:36:21:967
-3.926;-8.243;0.029;-1.363;-9.521;-1.916;-2.623;1.206;1.592;-0.806;-0.138;-0.286;-10.5;1.3;29.1;50.73;7563;2018-04-16 22:36:21:977
-3.752;-8.01;-0.042;-1.325;-9.496;-2.06;-2.427;1.486;2.018;-0.863;-0.051;-0.253;-10.5;1.3;29.1;50.73;7573;2018-04-16 22:36:21:987
-3.752;-8.01;-0.042;-1.325;-9.496;-2.06;-2.427;1.486;2.018;-0.863;-0.051;-0.253;-10.6;1.1;28.9;50.73;7583;2018-04-16 22:36:21:997
-3.655;-7.851;-0.917;-1.265;-9.461;-2.249;-2.389;1.61;1.332;-1.01;0.164;-0.31;-10.6;1.1;28.9;50.73;7593;2018-04-16 22:36:22:007
-3.711;-7.627;-1.961;-1.265;-9.461;-2.249;-2.389;1.61;1.332;-1.078;0.221;-0.368;-10.9;0.8;28.9;50.73;7602;2018-04-16 22:36:22:016
-3.711;-7.627;-1.961;-1.187;-9.417;-2.465;-2.333;1.871;0.414;-1.145;0.215;-0.368;-10.9;0.8;28.9;50.73;7613;2018-04-16 22:36:22:027
-3.162;-7.446;-2.16;-1.187;-9.417;-2.465;-2.333;1.871;0.414;-1.108;0.116;-0.368;-11.3;0.4;28.8;50.73;7622;2018-04-16 22:36:22:036
-2.604;-7.369;-1.697;-1.113;-9.369;-2.673;-1.712;1.927;0.708;-0.998;0.031;-0.378;-11.3;0.4;28.8;50.73;7633;2018-04-16 22:36:22:047
-2.604;-7.369;-1.697;-1.113;-9.369;-2.673;-1.712;1.927;0.708;-0.821;0.017;-0.358;-11.6;0.0;28.7;50.73;7643;2018-04-16 22:36:22:057
-1.98;-7.131;-1.599;-1.047;-9.332;-2.826;-0.933;2.201;1.226;-0.821;0.017;-0.358;-11.6;0.0;28.7;50.73;7653;2018-04-16 22:36:22:067
-1.075;-7.062;-1.448;-1.047;-9.332;-2.826;-0.933;2.201;1.226;-0.544;0.033;-0.266;-12.0;-0.4;28.6;50.73;7663;2018-04-16 22:36:22:077
-1.075;-7.062;-1.448;-1.004;-9.312;-2.907;0.117;2.261;1.51;-0.349;0.005;-0.191;-12.0;-0.4;28.6;50.73;7673;2018-04-16 22:36:22:087
-0.429;-7.069;-1.426;-1.004;-9.312;-2.907;0.117;2.261;1.51;-0.079;0.031;-0.077;-12.3;-0.8;28.6;50.73;7682;2018-04-16 22:36:22:096
-0.235;-7.16;-1.516;-0.989;-9.309;-2.922;0.754;2.149;1.406;0.066;0.006;-0.002;-12.3;-0.8;28.6;50.73;7693;2018-04-16 22:36:22:107
-0.001;-7.232;-1.611;-0.989;-9.309;-2.922;0.754;2.149;1.406;0.192;-0.06;0.088;-12.6;-1.2;28.5;50.73;7703;2018-04-16 22:36:22:117
-0.001;-7.232;-1.611;-1.01;-9.318;-2.885;1.056;2.048;1.148;0.192;-0.06;0.088;-12.6;-1.2;28.5;50.73;7713;2018-04-16 22:36:22:127
0.113;-7.457;-2.037;-1.01;-9.318;-2.885;1.056;2.048;1.148;0.308;-0.154;0.232;-12.8;-1.6;28.5;50.73;7723;2018-04-16 22:36:22:137
0.113;-7.457;-2.037;-1.075;-9.331;-2.819;1.15;1.52;0.666;0.308;-0.154;0.232;-12.8;-1.6;28.5;50.73;7733;2018-04-16 22:36:22:147
-0.123;-8.197;-2.393;-1.075;-9.331;-2.819;1.15;1.52;0.666;0.38;-0.426;0.402;-12.9;-1.8;28.4;50.73;7745;2018-04-16 22:36:22:159
-0.594;-8.908;-3.019;-1.184;-9.343;-2.736;0.755;0.723;-0.048;0.398;-0.563;0.48;-12.9;-1.9;28.3;50.73;7754;2018-04-16 22:36:22:168
-0.594;-8.908;-3.019;-1.184;-9.343;-2.736;0.755;0.723;-0.048;0.38;-0.711;0.561;-12.9;-1.9;28.3;50.73;7764;2018-04-16 22:36:22:178
-0.85;-9.523;-3.44;-1.335;-9.345;-2.657;0.485;-0.178;-0.784;0.194;-0.926;0.723;-13.0;-2.1;28.3;50.73;7774;2018-04-16 22:36:22:188
-0.778;-9.935;-3.753;-1.421;-9.339;-2.635;0.643;-0.596;-1.118;0.194;-0.926;0.723;-13.0;-2.1;28.3;58.49;7783;2018-04-16 22:36:22:197
-0.778;-9.935;-3.753;-1.421;-9.339;-2.635;0.643;-0.596;-1.118;-0.042;-0.966;0.722;-13.0;-2.2;28.2;58.49;7793;2018-04-16 22:36:22:207
-0.183;-10.679;-4.329;-1.595;-9.312;-2.627;1.412;-1.367;-1.701;-0.271;-0.909;0.495;-13.0;-2.2;28.2;58.49;7802;2018-04-16 22:36:22:216
0.273;-10.959;-4.805;-1.656;-9.297;-2.645;1.929;-1.663;-2.16;-0.389;-0.904;0.191;-13.0;-2.3;28.1;58.49;7813;2018-04-16 22:36:22:227
0.454;-11.038;-4.84;-1.656;-9.297;-2.645;1.929;-1.663;-2.16;-0.435;-0.861;-0.122;-13.0;-2.3;28.1;58.49;7823;2018-04-16 22:36:22:237
0.29;-10.116;-4.865;-1.664;-9.275;-2.715;1.953;-0.84;-2.15;-0.331;-0.651;-0.364;-12.8;-2.6;28.1;58.49;7837;2018-04-16 22:36:22:251
0.29;-10.116;-4.865;-1.664;-9.275;-2.715;1.953;-0.84;-2.15;-0.331;-0.651;-0.364;-12.8;-2.6;28.1;58.49;7848;2018-04-16 22:36:22:262
0.079;-9.252;-4.986;-1.664;-9.275;-2.715;1.953;-0.84;-2.15;-0.027;-0.467;-0.382;-12.8;-2.6;28.1;58.49;7853;2018-04-16 22:36:22:267
0.079;-9.252;-4.986;-1.615;-9.285;-2.712;1.6;0.248;-2.148;-0.027;-0.467;-0.382;-12.6;-2.6;28.2;58.49;7863;2018-04-16 22:36:22:277
-0.326;-8.576;-4.47;-1.615;-9.285;-2.712;1.6;0.248;-2.148;0.315;-0.197;-0.363;-12.6;-2.6;28.2;58.49;7873;2018-04-16 22:36:22:287
-1.092;-7.74;-4.009;-1.546;-9.315;-2.646;0.79;1.292;-1.428;0.524;-0.02;-0.371;-12.4;-2.7;28.2;58.49;7883;2018-04-16 22:36:22:297
-1.092;-7.74;-4.009;-1.546;-9.315;-2.646;0.79;1.292;-1.428;0.689;0.034;-0.384;-12.4;-2.7;28.2;58.49;7893;2018-04-16 22:36:22:307
-1.954;-6.981;-3.157;-1.474;-9.365;-2.509;-0.48;2.383;-0.647;0.782;-0.073;-0.403;-12.2;-2.7;28.1;58.49;7903;2018-04-16 22:36:22:317
-3.077;-7.361;-1.974;-1.445;-9.393;-2.419;-1.631;2.032;0.445;0.816;-0.293;-0.352;-12.1;-2.8;28.2;58.49;7913;2018-04-16 22:36:22:327
-4.924;-8.374;-0.439;-1.445;-9.393;-2.419;-1.631;2.032;0.445;0.787;-0.54;0.002;-12.0;-2.8;28.3;58.49;7923;2018-04-16 22:36:22:337
-4.924;-8.374;-0.439;-1.501;-9.427;-2.246;-3.627;0.948;1.814;0.787;-0.54;0.002;-12.0;-2.8;28.3;58.49;7933;2018-04-16 22:36:22:347
-4.924;-8.374;-0.439;-1.558;-9.434;-2.178;-3.723;0.912;1.673;0.709;-0.579;0.281;-12.0;-2.8;28.3;58.49;7943;2018-04-16 22:36:22:357
-5.059;-8.547;-0.974;-1.558;-9.434;-2.178;-3.723;0.912;1.673;0.709;-0.579;0.281;-11.8;-2.6;28.4;58.49;7953;2018-04-16 22:36:22:367
-5.059;-8.547;-0.974;-1.681;-9.436;-2.075;-2.602;-0.341;0.376;0.386;-0.431;0.467;-11.8;-2.6;28.4;58.49;7963;2018-04-16 22:36:22:377
-3.648;-11.675;-2.698;-1.681;-9.436;-2.075;-2.602;-0.341;0.376;0.354;-0.463;0.417;-11.5;-2.3;28.5;58.49;7973;2018-04-16 22:36:22:387
-1.033;-16.495;-8.147;-1.775;-9.436;-1.996;-0.563;-5.319;-3.702;0.305;-0.484;0.374;-11.5;-2.3;28.5;58.49;7983;2018-04-16 22:36:22:397
-1.033;-16.495;-8.147;-1.802;-9.43;-1.999;1.703;-8.777;-7.088;-0.05;-0.147;0.231;-11.3;-2.1;28.5;58.49;7993;2018-04-16 22:36:22:407
-0.748;-19.872;-5.908;-1.802;-9.43;-1.999;1.703;-8.777;-7.088;-0.61;0.662;-0.197;-11.1;-1.9;28.5;58.49;8002;2018-04-16 22:36:22:416
-1.609;-14.992;-1.876;-1.747;-9.415;-2.117;0.139;-5.578;0.241;0.011;0.999;-0.105;-11.0;-1.8;28.5;58.49;8013;2018-04-16 22:36:22:427
-1.609;-14.992;-1.876;-1.747;-9.415;-2.117;0.139;-5.578;0.241;0.011;0.999;-0.105;-11.0;-1.8;28.5;58.49;8023;2018-04-16 22:36:22:437
-2.503;-5.052;3.197;-1.684;-9.428;-2.109;-0.82;4.376;5.307;0.349;1.079;-0.112;-10.8;-1.5;28.7;58.49;8033;2018-04-16 22:36:22:447
-3.609;-3.66;2.412;-1.684;-9.428;-2.109;-0.82;4.376;5.307;0.924;0.784;-0.268;-10.8;-1.5;28.7;58.49;8044;2018-04-16 22:36:22:458
-3.609;-3.66;2.412;-1.604;-9.469;-1.985;-2.295;5.572;4.192;1.098;0.72;-0.21;-10.7;-1.4;28.7;58.49;8054;2018-04-16 22:36:22:468
-4.448;-4.663;1.355;-1.604;-9.469;-1.985;-2.295;5.572;4.192;1.098;0.72;-0.21;-10.7;-1.4;28.7;58.49;8063;2018-04-16 22:36:22:477
-4.673;-6.244;-0.46;-1.582;-9.512;-1.784;-3.04;3.945;1.847;1.205;0.76;0.14;-10.5;-1.1;28.7;58.49;8073;2018-04-16 22:36:22:487
-4.806;-8.183;-0.256;-1.582;-9.512;-1.784;-3.04;3.945;1.847;0.99;0.733;0.541;-10.5;-1.0;28.7;58.49;8083;2018-04-16 22:36:22:497
-4.884;-9.262;0.344;-1.676;-9.527;-1.614;-3.164;0.883;1.643;0.794;0.726;0.777;-10.5;-1.0;28.7;58.49;8094;2018-04-16 22:36:22:508
-4.884;-9.262;0.344;-1.74;-9.523;-1.565;-3.164;0.883;1.643;0.794;0.726;0.777;-10.5;-0.8;28.7;53.76;8103;2018-04-16 22:36:22:517
-4.841;-10.276;0.595;-1.74;-9.523;-1.565;-3.006;-0.764;2.121;0.505;0.722;1.009;-10.5;-0.8;28.7;53.76;8113;2018-04-16 22:36:22:527
-4.179;-10.415;0.12;-1.912;-9.499;-1.514;-3.006;-0.764;2.121;0.149;0.604;0.97;-10.5;-0.5;28.8;53.76;8122;2018-04-16 22:36:22:536
-4.179;-10.415;0.12;-1.912;-9.499;-1.514;-2.062;-0.84;1.565;-0.077;0.378;0.814;-10.5;-0.5;28.8;53.76;8133;2018-04-16 22:36:22:547
-3.867;-10.003;-0.005;-2.058;-9.464;-1.54;-2.062;-0.84;1.565;-0.23;0.051;0.717;-10.6;-0.1;28.7;53.76;8143;2018-04-16 22:36:22:557
-3.609;-9.483;-0.069;-2.138;-9.443;-1.56;-1.472;-0.041;1.49;-0.269;-0.138;0.709;-10.7;0.0;28.6;53.76;8153;2018-04-16 22:36:22:567
-3.609;-9.483;-0.069;-2.138;-9.443;-1.56;-1.472;-0.041;1.49;-0.269;-0.138;0.709;-10.7;0.0;28.6;53.76;8163;2018-04-16 22:36:22:577
-2.561;-9.457;-1.774;-2.316;-9.401;-1.557;-0.244;-0.056;-0.217;-0.154;-1.107;0.805;-10.8;0.2;28.5;53.76;8173;2018-04-16 22:36:22:587
-0.781;-8.777;-0.646;-2.316;-9.401;-1.557;-0.244;-0.056;-0.217;0.733;-2.393;0.859;-10.8;0.2;28.5;53.76;8183;2018-04-16 22:36:22:597
-0.83;-8.926;-0.316;-2.528;-9.383;-1.316;1.699;0.458;1.0;0.852;-2.417;0.705;-10.9;0.5;28.3;53.76;8194;2018-04-16 22:36:22:608
-0.83;-8.926;-0.316;-2.528;-9.383;-1.316;1.699;0.458;1.0;0.852;-2.417;0.705;-10.9;0.5;28.3;53.76;8203;2018-04-16 22:36:22:617
-1.401;-9.524;0.415;-2.574;-9.387;-1.193;1.174;-0.137;1.608;0.817;-1.933;0.346;-10.9;0.7;28.4;53.76;8212;2018-04-16 22:36:22:626
-1.902;-10.108;0.53;-2.574;-9.387;-1.193;1.174;-0.137;1.608;0.21;-0.016;0.244;-10.9;1.1;28.2;53.76;8223;2018-04-16 22:36:22:637
-1.902;-10.108;0.53;-2.645;-9.384;-1.051;0.781;-0.82;1.508;0.21;-0.016;0.244;-10.9;1.1;28.2;53.76;8232;2018-04-16 22:36:22:646
-1.715;-10.264;0.029;-2.645;-9.384;-1.051;0.781;-0.82;1.508;-0.043;0.414;0.34;-10.9;1.4;28.1;53.76;8243;2018-04-16 22:36:22:657
-1.504;-10.147;-0.253;-2.698;-9.366;-1.078;1.195;-0.78;0.826;-0.059;0.382;0.365;-10.9;1.4;28.1;53.76;8253;2018-04-16 22:36:22:667
-1.431;-9.88;-0.177;-2.698;-9.366;-1.078;1.195;-0.78;0.826;0.048;0.167;0.316;-10.9;1.7;28.1;53.76;8262;2018-04-16 22:36:22:676
-1.386;-9.947;-0.561;-2.733;-9.359;-1.049;1.269;-0.599;0.606;0.208;-0.097;0.183;-10.9;1.9;28.0;53.76;8273;2018-04-16 22:36:22:687
-1.386;-9.947;-0.561;-2.733;-9.359;-1.049;1.269;-0.599;0.606;0.304;-0.439;0.086;-10.9;1.9;28.0;53.76;8283;2018-04-16 22:36:22:697
-1.246;-9.81;-0.564;-2.743;-9.367;-0.947;1.497;-0.443;0.383;0.37;-0.766;0.032;-10.9;2.2;28.1;53.76;8293;2018-04-16 22:36:22:707
-0.767;-9.436;-0.516;-2.743;-9.367;-0.947;1.497;-0.443;0.383;0.395;-1.078;-0.007;-10.9;2.2;28.1;53.76;8303;2018-04-16 22:36:22:717
-0.767;-9.436;-0.516;-2.745;-9.379;-0.814;2.034;-0.024;0.293;0.395;-1.078;-0.007;-10.9;2.5;28.1;53.76;8313;2018-04-16 22:36:22:727
-0.663;-9.234;-0.553;-2.745;-9.379;-0.814;2.034;-0.024;0.293;0.358;-1.082;-0.068;-10.9;2.5;28.1;53.76;8322;2018-04-16 22:36:22:736
-0.663;-9.234;-0.553;-2.729;-9.393;-0.698;1.952;0.259;0.179;0.279;-1.042;-0.136;-10.9;2.8;28.0;53.76;8333;2018-04-16 22:36:22:747
-1.253;-9.324;-0.291;-2.729;-9.393;-0.698;1.952;0.259;0.179;0.115;-0.924;-0.274;-10.9;2.8;28.0;53.76;8343;2018-04-16 22:36:22:757
-2.04;-9.586;0.192;-2.674;-9.414;-0.633;0.82;-0.13;0.68;0.032;-0.713;-0.327;-10.7;3.2;27.9;53.76;8353;2018-04-16 22:36:22:767
-2.04;-9.586;0.192;-2.647;-9.423;-0.611;0.43;-0.12;0.906;0.032;-0.713;-0.327;-10.7;3.2;27.9;53.76;8363;2018-04-16 22:36:22:777
-2.494;-9.482;0.312;-2.647;-9.423;-0.611;0.43;-0.12;0.906;0.071;-0.442;-0.354;-10.6;3.5;28.0;53.76;8373;2018-04-16 22:36:22:787
-2.859;-9.36;0.098;-2.582;-9.444;-0.565;-0.144;0.04;0.759;0.134;-0.298;-0.379;-10.6;3.5;28.0;53.76;8383;2018-04-16 22:36:22:797
-2.859;-9.36;0.098;-2.544;-9.456;-0.536;-0.144;0.04;0.759;0.194;-0.204;-0.4;-10.4;3.8;28.0;53.76;8393;2018-04-16 22:36:22:807
-3.073;-9.164;-0.109;-2.544;-9.456;-0.536;-0.56;0.301;0.403;0.192;-0.133;-0.39;-10.4;3.8;28.0;53.76;8403;2018-04-16 22:36:22:817
-3.239;-8.888;-0.119;-2.478;-9.476;-0.491;-0.56;0.301;0.403;0.126;-0.121;-0.374;-10.1;4.0;28.0;53.76;8413;2018-04-16 22:36:22:827
-3.239;-8.888;-0.119;-2.478;-9.476;-0.491;-0.827;0.681;0.461;0.048;-0.094;-0.359;-10.1;4.0;28.0;57.4;8423;2018-04-16 22:36:22:837
-3.346;-8.739;0.083;-2.418;-9.492;-0.473;-0.928;0.753;0.555;0.048;-0.094;-0.359;-9.8;4.1;28.0;57.4;8433;2018-04-16 22:36:22:847
-3.506;-8.746;0.368;-2.418;-9.492;-0.473;-0.928;0.753;0.555;0.005;-0.067;-0.338;-9.6;4.2;28.1;57.4;8443;2018-04-16 22:36:22:857
-3.506;-8.746;0.368;-2.366;-9.506;-0.456;-1.168;0.742;0.912;0.051;-0.075;-0.321;-9.6;4.2;28.1;57.4;8453;2018-04-16 22:36:22:867
-3.559;-8.841;0.654;-2.366;-9.506;-0.456;-1.168;0.742;0.912;0.186;-0.04;-0.296;-9.3;4.5;28.1;57.4;8463;2018-04-16 22:36:22:877
-3.504;-8.902;0.857;-2.323;-9.519;-0.406;-1.209;0.642;1.195;0.186;-0.04;-0.296;-9.3;4.5;28.1;57.4;8473;2018-04-16 22:36:22:887
-3.437;-8.978;0.86;-2.323;-9.519;-0.406;-1.209;0.642;1.195;0.324;0.06;-0.241;-9.1;4.7;28.3;57.4;8483;2018-04-16 22:36:22:897
-3.437;-8.978;0.86;-2.292;-9.529;-0.33;-1.128;0.479;1.123;0.385;0.161;-0.195;-9.1;4.7;28.3;57.4;8493;2018-04-16 22:36:22:907
-3.383;-9.153;0.587;-2.292;-9.529;-0.33;-1.128;0.479;1.123;0.421;0.294;-0.112;-8.8;4.9;28.3;57.4;8503;2018-04-16 22:36:22:917
-3.373;-9.21;0.328;-2.28;-9.534;-0.255;-1.093;0.324;0.583;0.421;0.314;-0.083;-8.8;4.9;28.3;57.4;8513;2018-04-16 22:36:22:927
-3.502;-9.342;-0.006;-2.28;-9.534;-0.255;-1.093;0.324;0.583;0.434;0.28;-0.032;-8.7;5.0;28.4;57.4;8524;2018-04-16 22:36:22:938
-3.502;-9.342;-0.006;-2.289;-9.534;-0.177;-1.208;0.192;0.101;0.509;0.056;0.056;-8.7;5.0;28.4;57.4;8534;2018-04-16 22:36:22:948
-3.456;-9.372;-0.209;-2.289;-9.534;-0.177;-1.208;0.192;0.101;0.509;0.056;0.056;-8.6;5.1;28.4;57.4;8543;2018-04-16 22:36:22:957
-3.456;-9.372;-0.209;-2.32;-9.528;-0.057;-0.997;0.168;-0.156;0.622;-0.257;0.142;-8.6;5.1;28.4;57.4;8553;2018-04-16 22:36:22:967
-2.966;-9.23;-0.243;-2.32;-9.528;-0.057;-0.997;0.168;-0.156;0.622;-0.257;0.142;-8.6;5.3;28.3;57.4;8563;2018-04-16 22:36:22:977
-2.816;-9.396;-0.199;-2.369;-9.516;0.092;-0.537;0.238;-0.329;0.694;-0.509;0.237;-8.5;5.4;28.4;57.4;8573;2018-04-16 22:36:22:987
-2.816;-9.396;-0.199;-2.369;-9.516;0.092;-0.537;0.238;-0.329;0.672;-0.461;0.281;-8.5;5.4;28.4;57.4;8583;2018-04-16 22:36:22:997
-2.583;-9.521;-0.165;-2.421;-9.5;0.241;-0.162;-0.021;-0.406;0.672;-0.461;0.281;-8.4;5.6;28.4;57.4;8594;2018-04-16 22:36:23:008
-2.167;-9.556;-0.176;-2.47;-9.483;0.37;0.434;-0.03;-0.542;0.645;-0.13;0.274;-8.4;5.6;28.4;57.4;8603;2018-04-16 22:36:23:017
-2.167;-9.556;-0.176;-2.47;-9.483;0.37;0.434;-0.03;-0.542;0.595;0.104;0.246;-8.3;5.7;28.3;57.4;8613;2018-04-16 22:36:23:027
-1.866;-9.527;-0.218;-2.47;-9.483;0.37;0.434;-0.03;-0.542;0.595;0.104;0.246;-8.3;5.7;28.3;57.4;8623;2018-04-16 22:36:23:037
-1.749;-9.521;-0.3;-2.509;-9.47;0.444;0.76;-0.051;-0.744;0.47;0.395;0.217;-8.1;6.0;28.4;57.4;8633;2018-04-16 22:36:23:047
-1.749;-9.521;-0.3;-2.509;-9.47;0.444;0.76;-0.051;-0.744;0.373;0.448;0.209;-8.1;6.0;28.4;57.4;8643;2018-04-16 22:36:23:057
-1.456;-9.457;-0.306;-2.544;-9.459;0.485;1.088;0.001;-0.792;0.368;0.359;0.203;-8.1;6.2;28.4;57.4;8653;2018-04-16 22:36:23:067
-1.209;-9.473;-0.23;-2.544;-9.459;0.485;1.088;0.001;-0.792;0.368;0.359;0.203;-8.1;6.2;28.4;57.4;8663;2018-04-16 22:36:23:077
-1.209;-9.473;-0.23;-2.57;-9.448;0.542;1.391;-0.028;-0.783;0.419;0.144;0.182;-8.1;6.4;28.3;57.4;8673;2018-04-16 22:36:23:087
-1.117;-9.477;-0.242;-2.57;-9.448;0.542;1.391;-0.028;-0.783;0.453;-0.018;0.169;-8.1;6.4;28.3;57.4;8683;2018-04-16 22:36:23:097
-1.041;-9.371;-0.134;-2.586;-9.439;0.629;1.521;0.02;-0.8;0.5;-0.233;0.147;-8.1;6.7;28.3;57.4;8694;2018-04-16 22:36:23:108
-1.015;-9.279;-0.005;-2.586;-9.439;0.629;1.521;0.02;-0.8;0.528;-0.338;0.103;-8.1;6.8;28.2;57.4;8703;2018-04-16 22:36:23:117
-1.015;-9.279;-0.005;-2.59;-9.429;0.742;1.507;0.199;-0.682;0.528;-0.338;0.103;-8.1;6.8;28.2;57.4;8713;2018-04-16 22:36:23:127
-1.215;-9.281;0.146;-2.59;-9.429;0.742;1.507;0.199;-0.682;0.558;-0.381;0.039;-8.1;7.1;28.2;57.4;8723;2018-04-16 22:36:23:137
-1.215;-9.281;0.146;-2.581;-9.422;0.857;1.176;-0.111;-0.701;0.553;-0.347;0.04;-8.1;7.1;28.2;57.4;8733;2018-04-16 22:36:23:147
-1.506;-9.931;0.249;-2.581;-9.422;0.857;1.176;-0.111;-0.701;0.553;-0.347;0.04;-8.1;7.4;28.2;57.4;8742;2018-04-16 22:36:23:156
-1.733;-10.598;0.402;-2.583;-9.411;0.962;0.938;-0.987;-0.599;0.501;-0.16;0.06;-8.1;7.4;28.2;57.4;8753;2018-04-16 22:36:23:167
-1.733;-10.598;0.402;-2.583;-9.411;0.962;0.938;-0.987;-0.599;0.487;0.072;0.049;-8.0;7.7;28.2;51.21;8763;2018-04-16 22:36:23:177
-1.877;-10.998;0.328;-2.594;-9.399;1.049;0.717;-1.599;-0.721;0.476;0.225;0.046;-8.0;7.7;28.2;51.21;8773;2018-04-16 22:36:23:187
-1.724;-11.11;0.057;-2.594;-9.399;1.049;0.717;-1.599;-0.721;0.432;0.307;0.028;-8.1;8.0;28.0;51.21;8783;2018-04-16 22:36:23:197
-1.724;-11.11;0.057;-2.604;-9.389;1.113;0.89;-1.741;-1.07;0.432;0.307;0.028;-8.1;8.0;28.0;51.21;8793;2018-04-16 22:36:23:207
-1.508;-10.946;-0.008;-2.604;-9.389;1.113;0.89;-1.741;-1.07;0.318;0.288;-0.001;-8.1;8.3;27.9;51.21;8803;2018-04-16 22:36:23:217
-1.198;-10.719;-0.057;-2.607;-9.383;1.152;1.409;-1.336;-1.21;0.239;0.187;-0.022;-8.1;8.3;27.9;51.21;8813;2018-04-16 22:36:23:227
-0.874;-10.576;0.017;-2.607;-9.383;1.152;1.409;-1.336;-1.21;0.188;0.027;-0.061;-8.1;8.6;27.9;51.21;8823;2018-04-16 22:36:23:237
-0.874;-10.576;0.017;-2.589;-9.384;1.189;1.785;-1.224;-1.167;0.167;-0.286;-0.119;-8.1;8.6;27.9;51.21;8833;2018-04-16 22:36:23:247
-0.728;-10.797;0.108;-2.589;-9.384;1.189;1.785;-1.224;-1.167;0.167;-0.286;-0.119;-8.1;9.0;27.8;51.21;8843;2018-04-16 22:36:23:257
-0.755;-11.012;0.193;-2.543;-9.388;1.252;1.788;-1.624;-1.059;0.209;-0.629;-0.198;-8.1;9.0;27.8;51.21;8853;2018-04-16 22:36:23:267
-1.152;-11.123;0.353;-2.543;-9.388;1.252;1.788;-1.624;-1.059;0.232;-0.91;-0.326;-8.1;9.3;27.8;51.21;8863;2018-04-16 22:36:23:277
-1.152;-11.123;0.353;-2.464;-9.397;1.339;1.123;-1.69;-0.953;0.2;-0.863;-0.369;-8.1;9.3;27.8;51.21;8873;2018-04-16 22:36:23:287
-1.832;-10.92;0.34;-2.464;-9.397;1.339;1.123;-1.69;-0.953;0.2;-0.863;-0.369;-8.0;9.5;27.7;51.21;8883;2018-04-16 22:36:23:297
-2.777;-10.643;0.124;-2.37;-9.412;1.406;-0.093;-1.299;-1.211;0.132;-0.663;-0.407;-8.0;9.5;27.7;51.21;8893;2018-04-16 22:36:23:307
-2.777;-10.643;0.124;-2.37;-9.412;1.406;-0.093;-1.299;-1.211;-0.043;-0.027;-0.516;-8.0;9.8;27.6;51.21;8903;2018-04-16 22:36:23:317
-3.45;-10.442;0.043;-2.274;-9.441;1.364;-1.176;-1.001;-1.321;-0.23;0.574;-0.575;-8.0;9.8;27.6;51.21;8913;2018-04-16 22:36:23:327
-3.45;-10.442;0.043;-2.274;-9.441;1.364;-1.176;-1.001;-1.321;-0.23;0.574;-0.575;-8.0;9.9;27.6;51.21;8923;2018-04-16 22:36:23:337
-3.294;-9.677;0.066;-2.204;-9.482;1.181;-1.09;-0.195;-1.115;-0.737;1.643;-0.586;-8.1;10.1;27.5;51.21;8933;2018-04-16 22:36:23:347
-3.294;-9.677;0.066;-2.204;-9.482;1.181;-1.09;-0.195;-1.115;-1.056;2.023;-0.551;-8.1;10.1;27.5;51.21;8943;2018-04-16 22:36:23:357
-3.373;-9.282;0.402;-2.15;-9.527;0.889;-1.223;0.244;-0.487;-1.183;2.072;-0.53;-8.1;10.3;27.5;51.21;8954;2018-04-16 22:36:23:368
-3.924;-9.031;0.329;-2.15;-9.527;0.889;-1.223;0.244;-0.487;-1.25;1.991;-0.517;-8.1;10.3;27.5;51.21;8963;2018-04-16 22:36:23:377
-3.924;-9.031;0.329;-2.098;-9.563;0.564;-2.014;0.64;-0.41;-1.25;1.991;-0.517;-8.3;10.5;27.5;51.21;8973;2018-04-16 22:36:23:387
-4.49;-8.758;-0.372;-2.098;-9.563;0.564;-2.014;0.64;-0.41;-1.305;1.72;-0.497;-8.4;10.5;27.4;51.21;8983;2018-04-16 22:36:23:397
-4.49;-8.758;-0.372;-2.04;-9.589;0.24;-2.688;0.878;-0.99;-1.335;1.432;-0.486;-8.4;10.5;27.4;51.21;8993;2018-04-16 22:36:23:407
-4.894;-8.78;-0.854;-2.04;-9.589;0.24;-2.688;0.878;-0.99;-1.382;0.959;-0.434;-8.7;10.5;27.3;51.21;9003;2018-04-16 22:36:23:417
-4.67;-9.057;0.018;-1.977;-9.605;-0.068;-2.761;0.675;-0.332;-1.418;0.717;-0.387;-8.7;10.5;27.3;51.21;9013;2018-04-16 22:36:23:427
-4.67;-9.057;0.018;-1.977;-9.605;-0.068;-2.761;0.675;-0.332;-1.447;0.544;-0.331;-9.0;10.5;27.2;51.21;9023;2018-04-16 22:36:23:437
-4.372;-9.495;0.827;-1.921;-9.61;-0.364;-2.451;0.114;1.191;-1.464;0.376;-0.274;-9.2;10.5;27.1;51.21;9033;2018-04-16 22:36:23:447
-4.372;-9.495;0.827;-1.921;-9.61;-0.364;-2.451;0.114;1.191;-1.464;0.376;-0.274;-9.2;10.5;27.1;51.21;9043;2018-04-16 22:36:23:457
-4.535;-9.789;1.31;-1.871;-9.604;-0.652;-2.664;-0.184;1.961;-1.442;0.224;-0.235;-9.5;10.3;27.1;51.21;9053;2018-04-16 22:36:23:467
-4.535;-9.789;1.31;-1.871;-9.604;-0.652;-2.664;-0.184;1.961;-1.459;0.221;-0.156;-9.5;10.3;27.1;51.21;9063;2018-04-16 22:36:23:477
-4.639;-10.218;2.213;-1.838;-9.587;-0.939;-2.801;-0.632;3.153;-1.438;0.338;-0.095;-9.9;10.1;27.1;51.21;9073;2018-04-16 22:36:23:487
-4.496;-10.342;2.215;-1.838;-9.587;-0.939;-2.801;-0.632;3.153;-1.381;0.507;-0.037;-9.9;10.1;27.1;52.42;9083;2018-04-16 22:36:23:497
-4.496;-10.342;2.215;-1.819;-9.558;-1.223;-2.732;-0.798;3.397;-1.338;0.737;-0.006;-10.3;9.9;27.1;52.42;9093;2018-04-16 22:36:23:507
-4.158;-9.996;1.609;-1.819;-9.558;-1.223;-2.732;-0.798;3.397;-1.338;0.737;-0.006;-10.3;9.9;27.1;52.42;9103;2018-04-16 22:36:23:517
-4.158;-9.996;1.609;-1.806;-9.523;-1.492;-1.815;-0.109;2.265;-1.223;0.892;0.05;-11.0;9.0;26.9;52.42;9112;2018-04-16 22:36:23:526
-2.453;-9.315;0.061;-1.806;-9.523;-1.492;-1.815;-0.109;2.265;-1.064;0.641;0.033;-11.0;9.0;26.9;52.42;9123;2018-04-16 22:36:23:537
0.116;-9.578;-0.237;-1.788;-9.491;-1.699;1.245;0.196;1.467;-0.83;0.591;-0.171;-11.5;8.5;27.3;52.42;9133;2018-04-16 22:36:23:547
0.116;-9.578;-0.237;-1.788;-9.491;-1.699;1.245;0.196;1.467;-0.671;1.089;-0.332;-11.5;8.5;27.3;52.42;9143;2018-04-16 22:36:23:557
0.858;-10.579;-0.702;-1.695;-9.477;-1.865;2.553;-1.102;1.163;-0.492;1.433;-0.456;-12.5;7.3;26.9;52.42;9153;2018-04-16 22:36:23:567
1.293;-10.807;-0.759;-1.695;-9.477;-1.865;2.553;-1.102;1.163;-0.296;1.644;-0.574;-12.5;7.3;26.9;52.42;9162;2018-04-16 22:36:23:576
1.293;-10.807;-0.759;-1.536;-9.479;-1.988;2.888;-1.418;1.302;-0.296;1.644;-0.574;-13.1;6.8;26.5;52.42;9173;2018-04-16 22:36:23:587
0.933;-11.107;-1.222;-1.445;-9.493;-1.992;2.378;-1.614;0.77;0.156;1.33;-0.767;-13.1;6.8;26.5;52.42;9183;2018-04-16 22:36:23:597
1.075;-10.883;-1.541;-1.332;-9.514;-1.97;2.407;-1.369;0.43;0.357;0.974;-0.887;-13.4;6.9;27.0;52.42;9193;2018-04-16 22:36:23:607
1.075;-10.883;-1.541;-1.332;-9.514;-1.97;2.407;-1.369;0.43;0.357;0.974;-0.887;-13.4;6.9;27.0;52.42;9203;2018-04-16 22:36:23:617
-1.639;-9.68;-1.72;-1.112;-9.553;-1.918;-0.527;-0.127;0.198;0.283;0.401;-1.058;-13.9;6.5;26.4;52.42;9213;2018-04-16 22:36:23:627
-1.639;-9.68;-1.72;-1.112;-9.553;-1.918;-0.527;-0.127;0.198;-0.021;-0.001;-0.889;-13.9;6.5;26.4;52.42;9223;2018-04-16 22:36:23:637
-2.717;-8.248;-0.462;-0.947;-9.57;-1.921;-1.771;1.322;1.458;-0.2;-0.191;-0.798;-14.1;6.3;26.5;52.42;9233;2018-04-16 22:36:23:647
-3.473;-7.876;0.045;-0.947;-9.57;-1.921;-1.771;1.322;1.458;-0.379;-0.197;-0.744;-14.1;6.3;26.5;52.42;9243;2018-04-16 22:36:23:657
-3.473;-7.876;0.045;-0.815;-9.567;-1.992;-2.608;1.783;1.726;-0.618;-0.188;-0.66;-14.1;6.3;26.5;52.42;9253;2018-04-16 22:36:23:667
-3.317;-7.945;-0.76;-0.815;-9.567;-1.992;-2.608;1.783;1.726;-0.618;-0.188;-0.66;-14.1;6.3;26.5;52.42;9262;2018-04-16 22:36:23:676
-3.236;-8.806;-0.693;-0.71;-9.54;-2.157;-2.502;1.081;1.253;-1.007;-0.22;-0.622;-14.5;5.8;26.3;52.42;9273;2018-04-16 22:36:23:687
-3.236;-8.806;-0.693;-0.71;-9.54;-2.157;-2.502;1.081;1.253;-1.197;-0.22;-0.595;-14.5;5.8;26.3;52.42;9282;2018-04-16 22:36:23:696
-2.749;-9.155;-0.802;-0.626;-9.496;-2.366;-2.222;0.368;1.779;-1.207;-0.103;-0.571;-14.9;5.3;26.3;52.42;9293;2018-04-16 22:36:23:707
-2.443;-9.128;-1.805;-0.626;-9.496;-2.366;-2.222;0.368;1.779;-1.195;-0.105;-0.561;-14.9;5.3;26.3;52.42;9304;2018-04-16 22:36:23:718
-2.443;-9.128;-1.805;-0.544;-9.444;-2.584;-1.755;0.406;0.782;-1.152;-0.149;-0.528;-15.1;4.9;26.3;52.42;9313;2018-04-16 22:36:23:727
-2.051;-8.699;-1.833;-0.544;-9.444;-2.584;-1.755;0.406;0.782;-1.03;-0.138;-0.486;-15.1;4.9;26.3;52.42;9323;2018-04-16 22:36:23:737
-1.982;-7.962;-1.93;-0.467;-9.396;-2.77;-1.544;1.132;0.834;-0.869;-0.16;-0.419;-15.4;4.4;26.3;52.42;9333;2018-04-16 22:36:23:747
-1.991;-7.27;-1.787;-0.44;-9.377;-2.836;-1.549;1.749;0.945;-0.71;-0.202;-0.32;-15.5;4.2;26.3;52.42;9343;2018-04-16 22:36:23:757
-1.991;-7.27;-1.787;-0.44;-9.377;-2.836;-1.549;1.749;0.945;-0.71;-0.202;-0.32;-15.5;4.2;26.3;52.42;9353;2018-04-16 22:36:23:767
-2.029;-6.525;-1.267;-0.413;-9.345;-2.943;-1.616;2.82;1.676;-0.509;-0.247;-0.151;-15.8;3.7;26.2;52.42;9363;2018-04-16 22:36:23:777
-2.029;-6.525;-1.267;-0.413;-9.345;-2.943;-1.616;2.82;1.676;-0.318;-0.193;0.037;-15.8;3.7;26.2;52.42;9373;2018-04-16 22:36:23:787
-1.668;-5.861;-1.015;-0.431;-9.326;-3.002;-1.236;3.465;1.987;-0.203;-0.221;0.15;-16.0;3.2;26.1;52.42;9383;2018-04-16 22:36:23:797
-1.208;-5.958;-1.188;-0.431;-9.326;-3.002;-1.236;3.465;1.987;-0.07;-0.302;0.238;-16.0;3.2;26.1;52.42;9393;2018-04-16 22:36:23:807
-1.208;-5.958;-1.188;-0.493;-9.319;-3.014;-0.539;3.247;1.689;0.048;-0.38;0.304;-16.2;2.8;26.0;54.94;9403;2018-04-16 22:36:23:817
