sep=;
acc_x;acc_y;acc_z;grav_x;grav_y;grav_z;lin_acc_x;lin_acc_y;lin_acc_z;gyro_x;gyro_y;gyro_z;mag_x;mag_y;mag_z;sound_lvl;time_ms;date_time
3.809;-6.212;9.134;7.362;1.894;6.195;-3.553;-8.105;2.938;0.762;-6.646;3.796;-1.9;-34.3;6.5;41.78;7;2018-04-16 23:27:34:995
6.161;-4.348;3.667;8.266;1.339;5.104;-2.104;-5.687;-1.438;1.602;-6.785;4.634;-1.9;-34.1;6.8;41.78;17;2018-04-16 23:27:35:005
6.161;-4.348;3.667;8.266;1.339;5.104;-2.104;-5.687;-1.438;1.933;-7.638;5.209;-1.9;-34.1;6.8;41.78;27;2018-04-16 23:27:35:015
8.921;-2.765;2.538;8.266;1.339;5.104;-2.104;-5.687;-1.438;1.933;-7.638;5.209;-1.9;-34.1;6.8;41.78;37;2018-04-16 23:27:35:025
8.921;-2.765;2.538;9.072;0.575;3.679;-0.151;-3.34;-1.141;2.136;-8.217;5.459;-2.0;-33.6;7.7;41.78;47;2018-04-16 23:27:35:035
11.327;-2.811;3.843;9.582;-0.345;2.058;2.54;-3.061;2.385;2.454;-8.447;5.582;-2.0;-32.5;9.9;41.78;58;2018-04-16 23:27:35:046
11.327;-2.811;3.843;9.582;-0.345;2.058;2.54;-3.061;2.385;2.454;-8.447;5.582;-2.0;-32.5;9.9;41.78;67;2018-04-16 23:27:35:055
12.285;-2.94;6.491;9.675;-0.769;1.405;2.61;-2.171;5.086;2.964;-8.059;5.642;-2.0;-31.8;11.0;41.78;77;2018-04-16 23:27:35:065
12.285;-2.94;6.491;9.675;-0.769;1.405;2.61;-2.171;5.086;2.964;-8.059;5.642;-2.0;-31.8;11.0;41.78;89;2018-04-16 23:27:35:077
14.706;-0.819;6.11;9.629;-1.846;0.214;5.077;1.027;5.896;3.219;-5.984;5.866;-2.0;-31.0;12.7;50.29;98;2018-04-16 23:27:35:086
16.549;0.481;5.824;9.49;-2.458;-0.248;7.058;2.939;6.071;3.198;-5.025;5.709;-1.8;-29.5;14.7;50.29;109;2018-04-16 23:27:35:097
16.549;0.481;5.824;9.49;-2.458;-0.248;7.058;2.939;6.071;3.198;-5.025;5.709;-1.8;-29.5;14.7;50.29;118;2018-04-16 23:27:35:106
20.364;2.837;4.365;9.151;-3.44;-0.772;11.213;6.277;5.137;3.351;-3.552;4.828;-1.8;-27.5;16.5;50.29;128;2018-04-16 23:27:35:116
21.335;3.524;3.484;9.0;-3.79;-0.898;11.364;6.627;5.262;3.403;-2.941;4.128;-1.6;-26.7;18.6;50.29;138;2018-04-16 23:27:35:126
21.335;3.524;3.484;9.0;-3.79;-0.898;11.364;6.627;5.262;3.403;-2.941;4.128;-1.6;-26.7;18.6;50.29;147;2018-04-16 23:27:35:135
21.744;5.244;0.479;8.723;-4.365;-1.014;13.021;9.61;1.493;3.403;-2.023;2.363;-1.3;-23.6;21.0;50.29;157;2018-04-16 23:27:35:145
18.569;4.936;-2.173;8.603;-4.599;-1.007;9.967;9.535;-1.166;3.225;-1.552;0.486;-1.7;-21.9;20.0;50.29;168;2018-04-16 23:27:35:156
18.569;4.936;-2.173;8.603;-4.599;-1.007;9.967;9.535;-1.166;3.007;-1.379;-0.231;-1.7;-21.9;20.0;50.29;178;2018-04-16 23:27:35:166
17.103;4.28;-6.964;8.629;-4.556;-0.972;8.474;8.836;-5.992;2.717;-1.286;-0.599;-0.8;-20.5;22.6;50.29;188;2018-04-16 23:27:35:176
17.103;4.28;-6.964;8.629;-4.556;-0.972;8.474;8.836;-5.992;2.717;-1.286;-0.599;-0.8;-20.5;22.6;50.29;198;2018-04-16 23:27:35:186
13.258;2.783;-14.044;8.694;-4.438;-0.945;5.329;7.518;-9.819;1.406;-0.437;-1.401;-0.7;-19.6;23.1;50.29;207;2018-04-16 23:27:35:195
13.258;2.783;-14.044;8.694;-4.438;-0.945;5.329;7.518;-9.819;1.406;-0.437;-1.401;-0.7;-19.6;23.1;50.29;217;2018-04-16 23:27:35:205
8.66;-0.116;-8.226;8.855;-4.124;-0.87;2.47;5.364;-14.957;-2.496;1.688;-1.614;0.2;-17.7;25.6;50.29;227;2018-04-16 23:27:35:215
6.175;-0.468;-1.79;8.96;-3.887;-0.879;-2.786;3.419;-0.911;-2.536;1.417;-1.274;0.0;-19.5;24.7;50.29;237;2018-04-16 23:27:35:225
5.41;-1.045;0.31;8.96;-3.887;-0.879;-2.786;3.419;-0.911;-0.827;-0.417;-0.643;0.0;-19.5;24.7;50.29;248;2018-04-16 23:27:35:236
5.41;-1.045;0.31;8.974;-3.807;-1.068;-3.912;2.157;0.478;-0.827;-0.417;-0.643;-0.7;-20.7;24.0;50.29;257;2018-04-16 23:27:35:245
5.41;-1.045;0.31;8.974;-3.807;-1.068;-3.912;2.157;0.478;-0.827;-0.417;-0.643;-0.7;-20.7;24.0;50.29;267;2018-04-16 23:27:35:255
4.869;-2.105;-1.882;8.947;-3.829;-1.209;-4.078;1.725;-0.673;0.65;-2.005;0.189;-0.7;-20.4;24.0;50.29;277;2018-04-16 23:27:35:265
5.99;-1.308;-1.031;8.821;-4.023;-1.475;-4.551;1.779;0.925;1.06;-1.682;1.224;1.1;-19.8;24.1;50.29;287;2018-04-16 23:27:35:275
5.99;-1.308;-1.031;8.821;-4.023;-1.475;-4.551;1.779;0.925;1.06;-1.682;1.224;1.1;-19.8;24.1;50.29;298;2018-04-16 23:27:35:286
7.417;-0.609;-1.44;8.724;-4.199;-1.562;-1.306;3.589;0.122;1.124;-1.385;1.543;1.0;-19.5;25.5;50.29;308;2018-04-16 23:27:35:296
7.417;-0.609;-1.44;8.724;-4.199;-1.562;-1.306;3.589;0.122;1.124;-1.385;1.543;1.0;-19.5;25.5;50.29;317;2018-04-16 23:27:35:305
9.708;0.006;-2.503;8.557;-4.495;-1.656;1.152;4.501;-0.847;1.031;-0.998;1.632;0.3;-20.0;23.4;50.29;328;2018-04-16 23:27:35:316
9.236;0.153;-1.026;8.423;-4.725;-1.7;0.812;4.878;0.674;0.676;-0.547;1.368;1.2;-18.6;25.2;50.29;338;2018-04-16 23:27:35:326
9.236;0.153;-1.026;8.423;-4.725;-1.7;0.812;4.878;0.674;0.676;-0.547;1.368;1.2;-18.6;25.2;50.29;347;2018-04-16 23:27:35:335
11.042;-0.989;-0.387;8.423;-4.725;-1.7;0.812;4.878;0.674;0.413;-0.382;1.431;1.2;-18.6;25.2;50.29;357;2018-04-16 23:27:35:345
12.184;-2.789;0.921;8.275;-4.971;-1.728;3.278;3.181;3.188;0.373;-0.176;1.241;0.9;-17.9;25.1;50.29;367;2018-04-16 23:27:35:355
12.184;-2.789;0.921;8.14;-5.176;-1.764;3.96;2.771;1.81;0.154;-0.534;1.219;0.5;-19.0;24.3;50.29;377;2018-04-16 23:27:35:365
10.368;-2.687;1.234;8.14;-5.176;-1.764;3.96;2.771;1.81;-0.14;-1.031;1.394;0.5;-19.0;24.3;50.29;388;2018-04-16 23:27:35:376
10.368;-2.687;1.234;8.14;-5.176;-1.764;3.96;2.771;1.81;-0.14;-1.031;1.394;0.5;-19.0;24.3;50.29;397;2018-04-16 23:27:35:385
10.824;-3.014;0.639;7.916;-5.457;-1.927;2.908;2.443;2.567;-0.277;-0.744;2.145;0.4;-18.8;24.7;50.29;407;2018-04-16 23:27:35:395
10.824;-3.014;0.639;7.916;-5.457;-1.927;2.908;2.443;2.567;-0.277;-0.744;2.145;0.4;-18.8;24.7;50.29;417;2018-04-16 23:27:35:405
8.101;-5.47;-0.448;7.565;-5.907;-2.011;0.536;0.437;1.564;-0.432;-0.186;3.15;0.3;-18.6;25.0;50.29;428;2018-04-16 23:27:35:416
4.435;-7.022;-0.442;7.077;-6.449;-2.118;-1.834;0.249;1.648;-0.072;-0.712;3.754;0.4;-18.2;25.2;50.73;438;2018-04-16 23:27:35:426
4.435;-7.022;-0.442;7.077;-6.449;-2.118;-1.834;0.249;1.648;0.847;-1.39;4.402;0.4;-18.2;25.2;50.73;448;2018-04-16 23:27:35:436
2.674;-8.025;0.702;7.077;-6.449;-2.118;-1.834;0.249;1.648;0.847;-1.39;4.402;0.4;-18.2;25.2;50.73;457;2018-04-16 23:27:35:445
0.862;-6.173;0.696;6.392;-7.128;-2.121;-4.017;0.393;4.311;1.811;-1.473;4.705;0.5;-17.9;25.3;50.73;467;2018-04-16 23:27:35:455
0.862;-6.173;0.696;6.392;-7.128;-2.121;-4.017;0.393;4.311;3.272;-1.069;4.886;0.5;-17.9;25.3;50.73;477;2018-04-16 23:27:35:465
-0.861;-7.117;-0.316;5.576;-7.873;-1.759;-5.666;0.876;1.309;4.214;-1.933;5.844;0.6;-17.7;25.4;50.73;487;2018-04-16 23:27:35:475
-0.861;-7.117;-0.316;5.576;-7.873;-1.759;-5.666;0.876;1.309;4.214;-1.933;5.844;0.6;-17.7;25.4;50.73;497;2018-04-16 23:27:35:485
0.722;-3.164;0.716;4.563;-8.592;-1.237;-3.841;5.428;1.952;4.568;-1.968;5.903;0.5;-17.3;25.5;50.73;508;2018-04-16 23:27:35:496
0.722;-3.164;0.716;4.563;-8.592;-1.237;-3.841;5.428;1.952;4.568;-1.968;5.903;0.5;-17.3;25.5;50.73;517;2018-04-16 23:27:35:505
0.694;-2.95;1.05;3.524;-9.133;-0.576;-2.83;6.184;1.626;4.574;-1.809;5.659;0.5;-16.9;25.5;50.73;528;2018-04-16 23:27:35:516
-1.373;-5.729;1.125;2.471;-9.489;0.117;-3.844;3.76;1.008;3.544;-0.046;5.51;0.7;-12.9;26.7;50.73;537;2018-04-16 23:27:35:525
-1.373;-5.729;1.125;2.471;-9.489;0.117;-3.844;3.76;1.008;3.544;-0.046;5.51;0.7;-12.9;26.7;50.73;548;2018-04-16 23:27:35:536
-1.863;-6.905;0.182;1.97;-9.599;0.383;-3.832;2.694;-0.201;2.778;0.925;5.621;0.0;-10.3;25.4;50.73;557;2018-04-16 23:27:35:545
-1.863;-6.905;0.182;1.97;-9.599;0.383;-3.832;2.694;-0.201;2.778;0.925;5.621;0.0;-10.3;25.4;50.73;567;2018-04-16 23:27:35:555
-2.17;-6.15;-1.201;0.899;-9.745;0.627;-3.07;3.596;-1.828;0.56;1.026;5.602;0.4;-6.0;27.1;50.73;577;2018-04-16 23:27:35:565
-2.17;-6.15;-1.201;0.899;-9.745;0.627;-3.07;3.596;-1.828;0.56;1.026;5.602;0.4;-6.0;27.1;50.73;587;2018-04-16 23:27:35:575
-2.17;-6.15;-1.201;0.899;-9.745;0.627;-3.07;3.596;-1.828;0.56;1.026;5.602;0.4;-6.0;27.1;50.73;598;2018-04-16 23:27:35:586
-2.17;-6.15;-1.201;0.899;-9.745;0.627;-3.07;3.596;-1.828;0.56;1.026;5.602;0.4;-6.0;27.1;50.73;608;2018-04-16 23:27:35:596
-2.17;-6.15;-1.201;0.899;-9.745;0.627;-3.07;3.596;-1.828;0.56;1.026;5.602;0.4;-6.0;27.1;50.73;618;2018-04-16 23:27:35:606
-2.17;-6.15;-1.201;0.899;-9.745;0.627;-3.07;3.596;-1.828;0.56;1.026;5.602;0.4;-6.0;27.1;50.73;627;2018-04-16 23:27:35:615
-2.17;-6.15;-1.201;0.899;-9.745;0.627;-3.07;3.596;-1.828;0.56;1.026;5.602;0.4;-6.0;27.1;50.73;638;2018-04-16 23:27:35:626
-2.17;-6.15;-1.201;0.899;-9.745;0.627;-3.07;3.596;-1.828;0.56;1.026;5.602;0.4;-6.0;27.1;50.73;648;2018-04-16 23:27:35:636
-2.17;-6.15;-1.201;0.899;-9.745;0.627;-3.07;3.596;-1.828;0.56;1.026;5.602;0.4;-6.0;27.1;50.73;658;2018-04-16 23:27:35:646
-2.17;-6.15;-1.201;0.899;-9.745;0.627;-3.07;3.596;-1.828;0.56;1.026;5.602;0.4;-6.0;27.1;50.73;667;2018-04-16 23:27:35:655
-2.17;-6.15;-1.201;0.899;-9.745;0.627;-3.07;3.596;-1.828;0.56;1.026;5.602;0.4;-6.0;27.1;50.73;677;2018-04-16 23:27:35:665
-2.17;-6.15;-1.201;0.899;-9.745;0.627;-3.07;3.596;-1.828;0.56;1.026;5.602;0.4;-6.0;27.1;50.73;687;2018-04-16 23:27:35:675
-2.17;-6.15;-1.201;0.899;-9.745;0.627;-3.07;3.596;-1.828;0.56;1.026;5.602;0.4;-6.0;27.1;50.73;697;2018-04-16 23:27:35:685
-2.17;-6.15;-1.201;0.899;-9.745;0.627;-3.07;3.596;-1.828;0.56;1.026;5.602;0.4;-6.0;27.1;50.73;708;2018-04-16 23:27:35:696
-2.17;-6.15;-1.201;0.899;-9.745;0.627;-3.07;3.596;-1.828;0.56;1.026;5.602;0.4;-6.0;27.1;50.73;717;2018-04-16 23:27:35:705
-2.17;-6.15;-1.201;0.899;-9.745;0.627;-3.07;3.596;-1.828;0.56;1.026;5.602;0.4;-6.0;27.1;50.73;727;2018-04-16 23:27:35:715
-2.17;-6.15;-1.201;0.899;-9.745;0.627;-3.07;3.596;-1.828;0.56;1.026;5.602;0.4;-6.0;27.1;50.73;737;2018-04-16 23:27:35:725
-2.17;-6.15;-1.201;0.899;-9.745;0.627;-3.07;3.596;-1.828;0.56;1.026;5.602;0.4;-6.0;27.1;50.73;747;2018-04-16 23:27:35:735
-2.144;-5.309;1.589;-0.205;-9.793;0.483;-1.689;4.773;-0.442;-1.151;0.844;5.561;0.5;-4.7;28.0;50.73;757;2018-04-16 23:27:35:745
-2.144;-5.309;1.589;-0.205;-9.793;0.483;-1.689;4.773;-0.442;-1.151;0.844;5.561;0.5;-4.7;28.0;50.73;767;2018-04-16 23:27:35:755
-2.508;-10.306;-4.463;-2.752;-9.286;1.54;0.244;-1.02;-6.003;0.86;0.875;-0.054;15.3;-5.1;25.8;50.73;777;2018-04-16 23:27:35:765
-1.981;-9.406;-2.916;-2.788;-9.297;1.399;0.807;-0.108;-4.315;-0.524;2.39;-0.006;15.8;-4.3;24.7;50.73;787;2018-04-16 23:27:35:775
-2.119;-8.984;0.04;-2.871;-9.328;0.953;0.752;0.344;-0.914;-1.448;3.6;0.06;15.1;-4.5;24.7;50.73;798;2018-04-16 23:27:35:786
-2.119;-8.984;0.04;-2.871;-9.328;0.953;0.752;0.344;-0.914;-1.448;3.6;0.06;15.1;-4.5;24.7;50.73;807;2018-04-16 23:27:35:795
-2.168;-9.214;0.582;-2.871;-9.328;0.953;0.752;0.344;-0.914;-1.527;3.928;0.09;15.1;-4.5;24.7;66.23;817;2018-04-16 23:27:35:805
-2.265;-9.791;0.292;-2.937;-9.346;0.442;0.77;0.132;0.14;-1.448;4.078;0.087;13.8;-4.8;26.8;66.23;828;2018-04-16 23:27:35:816
-2.265;-9.791;0.292;-2.961;-9.349;0.013;0.667;-0.66;0.381;-1.104;3.903;0.056;10.8;-6.4;26.3;66.23;838;2018-04-16 23:27:35:826
-2.222;-9.956;0.584;-2.961;-9.349;0.013;0.667;-0.66;0.381;-0.617;3.465;0.077;10.8;-6.4;26.3;66.23;848;2018-04-16 23:27:35:836
-1.749;-9.499;1.565;-2.956;-9.347;-0.261;1.207;-0.152;1.826;-0.338;3.306;0.068;9.6;-6.0;28.4;66.23;858;2018-04-16 23:27:35:846
-1.749;-9.499;1.565;-2.956;-9.347;-0.261;1.207;-0.152;1.826;-0.338;3.306;0.068;9.6;-6.0;28.4;66.23;868;2018-04-16 23:27:35:856
-1.692;-9.61;1.361;-2.931;-9.349;-0.431;1.239;-0.262;1.792;-0.01;3.103;0.049;8.1;-6.3;27.8;66.23;878;2018-04-16 23:27:35:866
-1.753;-9.693;0.569;-2.931;-9.349;-0.431;1.239;-0.262;1.792;0.104;2.941;0.031;8.1;-6.3;27.8;66.23;888;2018-04-16 23:27:35:876
-1.753;-9.693;0.569;-2.931;-9.349;-0.431;1.239;-0.262;1.792;0.151;2.731;0.035;8.1;-6.3;27.8;66.23;897;2018-04-16 23:27:35:885
-1.612;-9.58;0.075;-2.898;-9.352;-0.556;1.286;-0.228;0.631;0.095;2.337;0.037;8.0;-6.0;29.5;66.23;907;2018-04-16 23:27:35:895
-1.532;-9.431;-0.37;-2.867;-9.354;-0.668;1.376;-0.091;0.159;0.007;2.024;0.038;6.7;-6.4;28.9;66.23;917;2018-04-16 23:27:35:905
-1.462;-9.523;-0.569;-2.867;-9.354;-0.668;1.376;-0.091;0.159;0.007;2.024;0.038;6.7;-6.4;28.9;66.23;927;2018-04-16 23:27:35:915
-1.462;-9.523;-0.569;-2.847;-9.352;-0.773;1.421;-0.217;0.215;-0.137;1.422;0.073;6.2;-6.2;29.7;66.23;937;2018-04-16 23:27:35:925
-1.262;-9.746;-0.473;-2.847;-9.352;-0.773;1.421;-0.217;0.215;-0.247;0.798;0.106;6.2;-6.2;29.7;66.23;948;2018-04-16 23:27:35:936
-1.262;-9.746;-0.473;-2.842;-9.347;-0.854;1.668;-0.438;0.539;-0.305;0.411;0.116;6.0;-6.6;28.7;66.23;957;2018-04-16 23:27:35:945
-1.14;-9.797;-0.186;-2.842;-9.347;-0.854;1.668;-0.438;0.539;-0.305;0.411;0.116;6.0;-6.6;28.7;66.23;967;2018-04-16 23:27:35:955
-1.082;-9.748;-0.035;-2.853;-9.339;-0.904;1.77;-0.409;0.869;-0.347;-0.11;0.133;5.8;-6.2;29.4;66.23;978;2018-04-16 23:27:35:966
-1.082;-9.748;-0.035;-2.853;-9.339;-0.904;1.77;-0.409;0.869;-0.351;-0.409;0.142;5.8;-6.2;29.4;66.23;988;2018-04-16 23:27:35:976
-1.082;-9.748;-0.035;-2.853;-9.339;-0.904;1.77;-0.409;0.869;-0.319;-0.759;0.131;5.8;-6.2;29.4;66.23;998;2018-04-16 23:27:35:986
-1.125;-9.567;0.267;-2.873;-9.331;-0.917;1.748;-0.236;1.184;-0.319;-0.759;0.131;5.7;-6.3;29.5;66.23;1007;2018-04-16 23:27:35:995
-1.314;-9.662;0.597;-2.894;-9.327;-0.897;1.58;-0.335;1.494;-0.26;-0.947;0.106;5.2;-6.7;28.9;66.23;1018;2018-04-16 23:27:36:006
-1.314;-9.662;0.597;-2.894;-9.327;-0.897;1.58;-0.335;1.494;-0.169;-0.977;0.076;5.2;-6.7;28.9;66.23;1028;2018-04-16 23:27:36:016
-1.45;-9.717;0.836;-2.909;-9.326;-0.849;1.43;-0.404;1.689;-0.089;-0.921;0.06;5.2;-7.1;27.4;66.23;1037;2018-04-16 23:27:36:025
-1.569;-9.734;0.819;-2.909;-9.326;-0.849;1.43;-0.404;1.689;-0.089;-0.921;0.06;5.2;-7.1;27.4;66.23;1047;2018-04-16 23:27:36:035
-1.569;-9.734;0.819;-2.916;-9.331;-0.775;1.271;-0.393;1.459;0.056;-0.777;0.038;5.9;-7.3;29.8;66.23;1058;2018-04-16 23:27:36:046
-1.778;-9.691;0.42;-2.916;-9.331;-0.775;1.271;-0.393;1.459;0.28;-0.649;0.021;5.9;-7.3;29.8;66.23;1067;2018-04-16 23:27:36:055
-1.778;-9.691;0.42;-2.919;-9.339;-0.658;1.031;-0.293;0.779;0.43;-0.724;0.024;6.1;-7.3;28.8;66.23;1077;2018-04-16 23:27:36:065
-2.006;-9.607;0.016;-2.919;-9.339;-0.658;1.031;-0.293;0.779;0.43;-0.724;0.024;6.1;-7.3;28.8;66.23;1088;2018-04-16 23:27:36:076
-2.006;-9.607;0.016;-2.928;-9.347;-0.479;0.877;-0.257;0.474;0.634;-0.927;0.034;6.1;-7.0;28.9;66.23;1097;2018-04-16 23:27:36:085
-2.045;-9.598;-0.069;-2.928;-9.347;-0.479;0.877;-0.257;0.474;0.7;-1.015;0.061;6.1;-7.0;28.9;66.23;1107;2018-04-16 23:27:36:095
-2.045;-9.598;-0.069;-2.928;-9.347;-0.479;0.877;-0.257;0.474;0.7;-1.015;0.061;6.1;-7.0;28.9;66.23;1118;2018-04-16 23:27:36:106
-1.952;-9.584;-0.223;-2.939;-9.351;-0.291;0.986;-0.233;0.068;0.682;-1.025;0.072;5.8;-6.9;29.1;53.39;1127;2018-04-16 23:27:36:115
-1.79;-9.669;-0.578;-2.949;-9.352;-0.104;1.16;-0.317;-0.474;0.652;-1.144;0.089;5.5;-6.8;29.2;53.39;1138;2018-04-16 23:27:36:126
-1.538;-9.84;-0.71;-2.949;-9.352;-0.104;1.16;-0.317;-0.474;0.672;-1.412;0.098;5.5;-6.8;29.2;53.39;1147;2018-04-16 23:27:36:135
-1.538;-9.84;-0.71;-2.956;-9.35;0.102;1.525;-0.562;-0.791;0.667;-1.567;0.093;5.3;-6.8;29.3;53.39;1157;2018-04-16 23:27:36:145
-1.313;-9.884;-0.639;-2.956;-9.35;0.102;1.525;-0.562;-0.791;0.641;-1.669;0.099;5.3;-6.8;29.3;53.39;1168;2018-04-16 23:27:36:156
-1.313;-9.884;-0.639;-2.954;-9.346;0.309;1.737;-0.438;-0.92;0.641;-1.669;0.099;5.3;-6.7;29.4;53.39;1177;2018-04-16 23:27:36:165
-1.143;-9.74;-0.594;-2.954;-9.346;0.309;1.737;-0.438;-0.92;0.567;-1.712;0.11;5.3;-6.7;29.4;53.39;1188;2018-04-16 23:27:36:176
-0.974;-9.59;-0.583;-2.943;-9.342;0.488;1.969;-0.248;-1.071;0.467;-1.632;0.103;5.4;-6.7;29.4;53.39;1197;2018-04-16 23:27:36:185
-0.974;-9.59;-0.583;-2.943;-9.342;0.488;1.969;-0.248;-1.071;0.467;-1.632;0.103;5.4;-6.7;29.4;53.39;1208;2018-04-16 23:27:36:196
-0.943;-9.547;-0.542;-2.924;-9.34;0.621;1.967;-0.214;-1.132;0.347;-1.427;0.077;5.7;-6.5;29.2;53.39;1220;2018-04-16 23:27:36:208
-1.056;-9.615;-0.438;-2.924;-9.34;0.621;1.967;-0.214;-1.132;0.192;-1.067;0.042;5.7;-6.5;29.2;53.39;1227;2018-04-16 23:27:36:215
-1.243;-9.724;-0.348;-2.902;-9.343;0.684;1.659;-0.382;-1.032;0.071;-0.75;0.011;6.2;-6.4;29.2;53.39;1238;2018-04-16 23:27:36:226
-1.243;-9.724;-0.348;-2.902;-9.343;0.684;1.659;-0.382;-1.032;0.071;-0.75;0.011;6.2;-6.4;29.2;53.39;1247;2018-04-16 23:27:36:235
-1.618;-9.791;-0.172;-2.883;-9.35;0.665;1.142;-0.435;-0.776;-0.112;-0.217;-0.032;6.7;-6.3;29.1;53.39;1258;2018-04-16 23:27:36:246
-1.878;-9.681;0.032;-2.883;-9.35;0.665;1.142;-0.435;-0.776;-0.247;0.29;-0.049;6.7;-6.3;29.1;53.39;1267;2018-04-16 23:27:36:255
-1.878;-9.681;0.032;-2.869;-9.359;0.583;0.9;-0.213;-0.444;-0.297;0.579;-0.06;7.6;-5.8;28.7;53.39;1279;2018-04-16 23:27:36:267
-1.994;-9.483;0.266;-2.869;-9.359;0.583;0.9;-0.213;-0.444;-0.297;0.579;-0.06;7.6;-5.8;28.7;53.39;1287;2018-04-16 23:27:36:275
-1.994;-9.483;0.266;-2.869;-9.359;0.583;0.894;-0.059;-0.113;-0.332;0.933;-0.065;8.0;-5.9;28.4;53.39;1298;2018-04-16 23:27:36:286
-1.964;-9.428;0.35;-2.858;-9.369;0.463;0.894;-0.059;-0.113;-0.346;1.21;-0.071;8.0;-5.9;28.4;53.39;1308;2018-04-16 23:27:36:296
-1.931;-9.412;0.39;-2.847;-9.379;0.317;0.955;-0.03;0.046;-0.362;1.41;-0.071;8.2;-5.7;28.8;53.39;1317;2018-04-16 23:27:36:305
-1.881;-9.487;0.281;-2.847;-9.379;0.317;0.955;-0.03;0.046;-0.362;1.41;-0.071;8.2;-5.7;28.8;53.39;1327;2018-04-16 23:27:36:315
-1.881;-9.487;0.281;-2.832;-9.387;0.169;0.983;-0.21;-0.021;-0.368;1.484;-0.07;8.7;-5.7;28.9;53.39;1337;2018-04-16 23:27:36:325
-1.861;-9.671;0.104;-2.832;-9.387;0.169;0.983;-0.21;-0.021;-0.368;1.509;-0.068;8.7;-5.7;28.9;53.39;1348;2018-04-16 23:27:36:336
-1.893;-9.797;0.026;-2.813;-9.394;0.023;0.868;-0.471;-0.049;-0.363;1.465;-0.07;9.0;-5.6;28.9;53.39;1357;2018-04-16 23:27:36:345
-2.022;-9.886;-0.121;-2.813;-9.394;0.023;0.868;-0.471;-0.049;-0.313;1.2;-0.062;9.0;-5.6;28.9;53.39;1367;2018-04-16 23:27:36:355
-2.073;-9.784;-0.146;-2.797;-9.399;-0.094;0.723;-0.385;-0.052;-0.275;1.007;-0.046;9.2;-5.5;28.9;53.39;1377;2018-04-16 23:27:36:365
-2.073;-9.784;-0.146;-2.797;-9.399;-0.094;0.723;-0.385;-0.052;-0.275;1.007;-0.046;9.2;-5.5;28.9;53.39;1388;2018-04-16 23:27:36:376
-2.088;-9.578;-0.062;-2.789;-9.401;-0.133;0.701;-0.177;0.071;-0.231;0.795;-0.034;9.3;-5.4;28.9;53.39;1397;2018-04-16 23:27:36:385
-2.079;-9.301;0.154;-2.777;-9.403;-0.193;0.698;0.102;0.348;-0.169;0.519;-0.022;9.4;-5.3;29.0;53.39;1408;2018-04-16 23:27:36:396
-2.079;-9.301;0.154;-2.777;-9.403;-0.193;0.698;0.102;0.348;-0.151;0.406;-0.021;9.4;-5.3;29.0;53.39;1417;2018-04-16 23:27:36:405
-2.046;-9.305;0.247;-2.766;-9.405;-0.239;0.761;0.075;0.502;-0.171;0.327;-0.016;9.4;-5.3;29.0;44.61;1428;2018-04-16 23:27:36:416
-1.924;-9.414;0.25;-2.766;-9.405;-0.239;0.761;0.075;0.502;-0.171;0.327;-0.016;9.4;-5.3;29.0;44.61;1437;2018-04-16 23:27:36:425
-1.924;-9.414;0.25;-2.755;-9.407;-0.286;0.831;-0.007;0.536;-0.205;0.25;-0.002;9.4;-5.3;28.9;44.61;1448;2018-04-16 23:27:36:436
-1.785;-9.592;0.157;-2.75;-9.408;-0.31;0.831;-0.007;0.536;-0.204;0.17;0.002;9.3;-5.4;29.0;44.61;1457;2018-04-16 23:27:36:445
-1.684;-9.759;0.043;-2.75;-9.408;-0.31;1.061;-0.35;0.369;-0.204;0.17;0.002;9.3;-5.4;29.0;44.61;1468;2018-04-16 23:27:36:456
-1.653;-9.779;0.043;-2.741;-9.41;-0.338;1.088;-0.369;0.381;-0.173;-0.015;0.002;9.2;-5.4;29.0;44.61;1479;2018-04-16 23:27:36:467
-1.653;-9.779;0.043;-2.741;-9.41;-0.338;1.088;-0.369;0.381;-0.142;-0.153;-0.001;9.2;-5.4;29.0;44.61;1487;2018-04-16 23:27:36:475
-1.623;-9.698;0.12;-2.736;-9.411;-0.341;1.113;-0.287;0.46;-0.142;-0.153;-0.001;9.2;-5.4;29.0;44.61;1497;2018-04-16 23:27:36:485
-1.695;-9.401;0.328;-2.726;-9.414;-0.329;1.031;0.014;0.657;-0.084;-0.319;-0.009;9.0;-5.5;29.1;44.61;1508;2018-04-16 23:27:36:496
-1.695;-9.401;0.328;-2.726;-9.414;-0.329;1.031;0.014;0.657;-0.028;-0.4;-0.021;9.0;-5.5;29.1;44.61;1517;2018-04-16 23:27:36:505
-1.804;-9.322;0.417;-2.716;-9.418;-0.298;0.878;0.09;0.728;0.009;-0.412;-0.028;8.8;-5.6;29.3;44.61;1527;2018-04-16 23:27:36:515
-1.893;-9.388;0.401;-2.716;-9.418;-0.298;0.878;0.09;0.728;0.046;-0.411;-0.028;8.8;-5.6;29.3;44.61;1537;2018-04-16 23:27:36:525
-1.893;-9.388;0.401;-2.705;-9.423;-0.255;0.777;-0.036;0.612;0.099;-0.398;-0.031;8.5;-5.7;29.4;44.61;1548;2018-04-16 23:27:36:536
-1.937;-9.498;0.323;-2.705;-9.423;-0.255;0.777;-0.036;0.612;0.099;-0.398;-0.031;8.5;-5.7;29.4;44.61;1558;2018-04-16 23:27:36:546
-1.967;-9.601;0.181;-2.699;-9.425;-0.228;0.74;-0.112;0.501;0.148;-0.406;-0.027;8.4;-5.7;29.4;44.61;1571;2018-04-16 23:27:36:559
-1.967;-9.601;0.181;-2.699;-9.425;-0.228;0.74;-0.112;0.501;0.148;-0.406;-0.027;8.4;-5.7;29.4;44.61;1578;2018-04-16 23:27:36:566
-1.967;-9.602;0.072;-2.689;-9.429;-0.176;0.722;-0.173;0.248;0.15;-0.418;-0.022;8.1;-5.9;29.5;44.61;1588;2018-04-16 23:27:36:576
-1.967;-9.602;0.072;-2.689;-9.429;-0.176;0.722;-0.173;0.248;0.166;-0.498;-0.018;8.1;-5.9;29.5;44.61;1598;2018-04-16 23:27:36:586
-1.999;-9.522;-0.036;-2.68;-9.433;-0.116;0.681;-0.089;0.08;0.187;-0.605;-0.007;7.9;-6.0;29.7;44.61;1608;2018-04-16 23:27:36:596
-2.02;-9.468;0.005;-2.68;-9.433;-0.116;0.681;-0.089;0.08;0.187;-0.605;-0.007;7.9;-6.0;29.7;44.61;1617;2018-04-16 23:27:36:605
-1.969;-9.48;0.057;-2.675;-9.435;-0.047;0.661;-0.019;0.075;0.172;-0.665;0.012;7.7;-6.1;29.7;44.61;1631;2018-04-16 23:27:36:619
-1.969;-9.48;0.057;-2.675;-9.435;-0.047;0.661;-0.019;0.075;0.172;-0.665;0.012;7.7;-6.1;29.7;44.61;1637;2018-04-16 23:27:36:625
-1.853;-9.597;0.102;-2.671;-9.436;0.019;0.772;-0.127;0.077;0.156;-0.638;0.02;7.6;-6.1;29.7;44.61;1648;2018-04-16 23:27:36:636
-1.741;-9.693;0.11;-2.666;-9.437;0.074;0.925;-0.256;0.036;0.13;-0.535;0.023;7.6;-6.1;29.6;44.61;1658;2018-04-16 23:27:36:646
-1.741;-9.693;0.11;-2.666;-9.437;0.074;0.925;-0.256;0.036;0.13;-0.535;0.023;7.6;-6.1;29.6;44.61;1669;2018-04-16 23:27:36:657
-1.741;-9.693;0.11;-2.662;-9.438;0.096;0.984;-0.261;0.023;0.13;-0.535;0.023;7.6;-6.1;29.6;44.61;1678;2018-04-16 23:27:36:666
-1.642;-9.669;0.11;-2.662;-9.438;0.096;0.984;-0.261;0.023;0.115;-0.401;0.01;7.6;-6.1;29.6;44.61;1687;2018-04-16 23:27:36:675
-1.628;-9.518;0.086;-2.653;-9.44;0.136;1.027;-0.149;-0.041;0.11;-0.253;-0.002;7.7;-6.1;29.5;44.61;1698;2018-04-16 23:27:36:686
-1.628;-9.518;0.086;-2.641;-9.443;0.166;0.97;-0.013;-0.098;0.11;-0.253;-0.002;7.8;-6.0;29.4;44.61;1707;2018-04-16 23:27:36:695
-1.738;-9.48;0.045;-2.641;-9.443;0.166;0.97;-0.013;-0.098;0.103;-0.1;-0.017;7.8;-6.0;29.4;44.61;1718;2018-04-16 23:27:36:706
-1.738;-9.48;0.045;-2.629;-9.446;0.186;0.844;-0.102;-0.143;0.103;-0.1;-0.017;7.9;-6.0;29.3;44.61;1728;2018-04-16 23:27:36:716
-1.81;-9.571;0.031;-2.629;-9.446;0.186;0.844;-0.102;-0.143;0.082;0.01;-0.02;7.9;-6.0;29.3;45.77;1737;2018-04-16 23:27:36:725
-1.81;-9.707;-0.037;-2.616;-9.449;0.19;0.806;-0.258;-0.228;0.06;0.081;-0.022;8.1;-6.0;29.3;45.77;1748;2018-04-16 23:27:36:736
-1.81;-9.707;-0.037;-2.616;-9.449;0.19;0.806;-0.258;-0.228;0.027;0.144;-0.02;8.1;-6.0;29.3;45.77;1757;2018-04-16 23:27:36:745
-1.757;-9.75;-0.05;-2.604;-9.453;0.175;0.868;-0.271;-0.211;-0.034;0.22;-0.012;8.3;-5.9;29.1;45.77;1767;2018-04-16 23:27:36:755
-1.733;-9.7;-0.041;-2.604;-9.453;0.175;0.868;-0.271;-0.211;-0.073;0.263;-0.017;8.3;-5.9;29.1;45.77;1778;2018-04-16 23:27:36:766
-1.812;-9.589;0.097;-2.593;-9.456;0.142;0.835;-0.218;-0.13;-0.11;0.308;-0.02;8.5;-5.9;29.1;45.77;1787;2018-04-16 23:27:36:775
-1.812;-9.589;0.097;-2.593;-9.456;0.142;0.835;-0.218;-0.13;-0.133;0.368;-0.017;8.5;-5.9;29.1;45.77;1797;2018-04-16 23:27:36:785
-1.909;-9.452;0.296;-2.584;-9.459;0.096;0.719;-0.028;0.098;-0.133;0.368;-0.017;8.6;-5.8;29.0;45.77;1807;2018-04-16 23:27:36:795
-1.907;-9.51;0.339;-2.581;-9.461;0.068;0.674;-0.049;0.271;-0.147;0.465;-0.011;8.7;-5.8;28.9;45.77;1817;2018-04-16 23:27:36:805
-1.907;-9.51;0.339;-2.581;-9.461;0.068;0.674;-0.049;0.271;-0.134;0.523;-0.006;8.7;-5.8;28.9;45.77;1828;2018-04-16 23:27:36:816
-1.9;-9.602;0.262;-2.574;-9.463;0.022;0.674;-0.139;0.241;-0.092;0.577;0.002;8.8;-5.8;28.8;45.77;1837;2018-04-16 23:27:36:825
-1.9;-9.602;0.262;-2.574;-9.463;0.022;0.674;-0.139;0.241;-0.092;0.577;0.002;8.8;-5.8;28.8;45.77;1847;2018-04-16 23:27:36:835
-1.786;-9.601;0.18;-2.569;-9.464;-0.014;0.827;-0.144;0.166;-0.044;0.569;0.012;8.8;-5.7;28.8;45.77;1858;2018-04-16 23:27:36:846
-1.671;-9.607;0.096;-2.569;-9.464;-0.014;0.827;-0.144;0.166;-0.026;0.539;0.016;8.8;-5.7;28.8;45.77;1867;2018-04-16 23:27:36:855
-1.671;-9.607;0.096;-2.562;-9.466;-0.046;0.918;-0.126;0.121;-0.032;0.509;0.012;8.9;-5.8;28.8;45.77;1877;2018-04-16 23:27:36:865
-1.603;-9.498;0.067;-2.562;-9.466;-0.046;0.918;-0.126;0.121;-0.032;0.509;0.012;8.9;-5.8;28.8;45.77;1888;2018-04-16 23:27:36:876
-1.603;-9.498;0.067;-2.562;-9.466;-0.046;0.918;-0.126;0.121;-0.032;0.509;0.012;8.9;-5.8;28.8;45.77;1897;2018-04-16 23:27:36:885
-1.578;-9.449;0.069;-2.556;-9.467;-0.079;0.985;0.028;0.126;-0.062;0.42;0.02;8.8;-5.7;28.9;45.77;1908;2018-04-16 23:27:36:896
-1.578;-9.449;0.069;-2.55;-9.469;-0.103;0.972;0.02;0.173;-0.049;0.298;0.018;8.8;-5.6;28.8;45.77;1918;2018-04-16 23:27:36:906
-1.592;-9.632;0.172;-2.55;-9.469;-0.103;0.972;0.02;0.173;-0.049;0.298;0.018;8.8;-5.6;28.8;45.77;1927;2018-04-16 23:27:36:915
-1.592;-9.632;0.172;-2.55;-9.469;-0.103;0.972;0.02;0.173;-0.023;0.21;0.021;8.8;-5.6;28.8;45.77;1937;2018-04-16 23:27:36:925
-1.577;-9.699;0.196;-2.543;-9.47;-0.115;0.967;-0.229;0.312;-0.006;0.156;0.015;8.8;-5.7;28.8;45.77;1948;2018-04-16 23:27:36:936
-1.492;-9.736;0.231;-2.536;-9.472;-0.119;1.044;-0.264;0.35;0.006;0.132;0.016;8.7;-5.6;28.9;45.77;1957;2018-04-16 23:27:36:945
-1.492;-9.736;0.231;-2.536;-9.472;-0.119;1.044;-0.264;0.35;0.006;0.132;0.016;8.7;-5.6;28.9;45.77;1967;2018-04-16 23:27:36:955
-1.474;-9.734;0.128;-2.527;-9.475;-0.118;1.054;-0.259;0.246;0.017;0.089;0.01;8.6;-5.6;28.9;45.77;1978;2018-04-16 23:27:36:966
-1.474;-9.734;0.128;-2.527;-9.475;-0.118;1.054;-0.259;0.246;0.034;0.012;0.004;8.6;-5.6;28.9;45.77;1988;2018-04-16 23:27:36:976
-1.554;-9.676;0.069;-2.514;-9.478;-0.106;0.919;-0.164;0.166;0.046;-0.06;0.001;8.4;-5.6;28.9;45.77;1998;2018-04-16 23:27:36:986
-1.635;-9.633;0.045;-2.514;-9.478;-0.106;0.919;-0.164;0.166;0.046;-0.06;0.001;8.4;-5.6;28.9;45.77;2007;2018-04-16 23:27:36:995
-1.721;-9.572;0.043;-2.502;-9.482;-0.08;0.781;-0.09;0.123;0.079;-0.183;-0.002;8.3;-5.7;29.1;45.77;2018;2018-04-16 23:27:37:006
-1.721;-9.572;0.043;-2.502;-9.482;-0.08;0.781;-0.09;0.123;0.109;-0.31;0.002;8.3;-5.7;29.1;45.77;2028;2018-04-16 23:27:37:016
-1.706;-9.584;0.035;-2.495;-9.484;-0.04;0.806;-0.14;0.06;0.121;-0.385;0.004;8.1;-5.7;29.1;51.08;2038;2018-04-16 23:27:37:026
-1.694;-9.705;0.007;-2.495;-9.484;-0.04;0.806;-0.14;0.06;0.121;-0.385;0.004;8.1;-5.7;29.1;51.08;2048;2018-04-16 23:27:37:036
-1.694;-9.705;0.007;-2.489;-9.485;0.006;0.805;-0.264;0.001;0.119;-0.47;0.006;8.0;-5.7;29.2;51.08;2057;2018-04-16 23:27:37:045
-1.68;-9.756;-0.005;-2.489;-9.485;0.006;0.805;-0.264;0.001;0.106;-0.509;0.011;8.0;-5.7;29.2;51.08;2068;2018-04-16 23:27:37:056
-1.653;-9.7;-0.005;-2.483;-9.487;0.048;0.83;-0.213;-0.053;0.088;-0.538;0.011;7.9;-5.8;29.1;51.08;2078;2018-04-16 23:27:37:066
-1.653;-9.7;-0.005;-2.483;-9.487;0.048;0.83;-0.213;-0.053;0.059;-0.56;0.006;7.9;-5.8;29.1;51.08;2087;2018-04-16 23:27:37:075
-1.662;-9.623;0.043;-2.483;-9.487;0.048;0.83;-0.213;-0.053;0.059;-0.56;0.006;7.9;-5.8;29.1;51.08;2098;2018-04-16 23:27:37:086
-1.75;-9.498;0.105;-2.475;-9.489;0.085;0.782;-0.096;-0.039;0.04;-0.561;0.004;7.8;-5.7;29.1;51.08;2107;2018-04-16 23:27:37:095
-1.75;-9.498;0.105;-2.468;-9.49;0.118;0.671;0.069;0.033;0.037;-0.54;-0.002;7.7;-5.8;29.1;51.08;2117;2018-04-16 23:27:37:105
-1.816;-9.412;0.151;-2.468;-9.49;0.118;0.671;0.069;0.033;0.043;-0.508;0.001;7.7;-5.8;29.1;51.08;2127;2018-04-16 23:27:37:115
-1.799;-9.457;0.231;-2.461;-9.492;0.151;0.662;0.035;0.08;0.053;-0.454;0.002;7.7;-5.8;29.1;51.08;2138;2018-04-16 23:27:37:126
-1.799;-9.457;0.231;-2.461;-9.492;0.151;0.662;0.035;0.08;0.062;-0.34;0.006;7.7;-5.8;29.1;51.08;2148;2018-04-16 23:27:37:136
-1.624;-9.658;0.212;-2.453;-9.493;0.176;0.829;-0.165;0.035;0.057;-0.242;0.007;7.7;-5.8;29.0;51.08;2158;2018-04-16 23:27:37:146
-1.624;-9.658;0.212;-2.453;-9.493;0.176;0.829;-0.165;0.035;0.057;-0.242;0.007;7.7;-5.8;29.0;51.08;2168;2018-04-16 23:27:37:156
-1.517;-9.737;0.089;-2.444;-9.495;0.178;0.927;-0.242;-0.089;0.023;-0.081;0.0;7.8;-5.7;28.9;51.08;2179;2018-04-16 23:27:37:167
-1.517;-9.737;0.089;-2.444;-9.495;0.178;0.927;-0.242;-0.089;-0.042;0.095;-0.007;7.8;-5.7;28.9;51.08;2187;2018-04-16 23:27:37:175
-1.522;-9.683;0.042;-2.434;-9.499;0.16;0.912;-0.185;-0.118;-0.066;0.144;-0.01;7.8;-5.7;28.8;51.08;2198;2018-04-16 23:27:37:186
-1.565;-9.506;-0.023;-2.434;-9.499;0.16;0.912;-0.185;-0.118;-0.066;0.144;-0.01;7.8;-5.7;28.8;51.08;2207;2018-04-16 23:27:37:195
-1.565;-9.506;-0.023;-2.42;-9.502;0.135;0.767;0.045;-0.139;-0.077;0.16;-0.02;7.9;-5.7;28.8;51.08;2217;2018-04-16 23:27:37:205
-1.701;-9.469;0.026;-2.42;-9.502;0.135;0.767;0.045;-0.139;-0.068;0.151;-0.024;7.9;-5.7;28.8;51.08;2227;2018-04-16 23:27:37:215
-1.701;-9.469;0.026;-2.42;-9.502;0.135;0.767;0.045;-0.139;-0.064;0.147;-0.021;7.9;-5.7;28.6;51.08;2237;2018-04-16 23:27:37:225
-1.774;-9.691;0.247;-2.41;-9.505;0.116;0.637;-0.07;0.01;-0.066;0.186;-0.016;7.9;-5.7;28.6;51.08;2248;2018-04-16 23:27:37:236
-1.774;-9.691;0.247;-2.41;-9.505;0.116;0.637;-0.07;0.01;-0.066;0.186;-0.016;7.9;-5.7;28.6;51.08;2258;2018-04-16 23:27:37:246
-1.708;-9.719;0.279;-2.401;-9.508;0.092;0.651;-0.2;0.199;-0.084;0.244;-0.013;8.0;-5.7;28.5;51.08;2268;2018-04-16 23:27:37:256
-1.708;-9.719;0.279;-2.393;-9.51;0.058;0.724;-0.174;0.186;-0.106;0.337;-0.012;8.1;-5.7;28.5;51.08;2278;2018-04-16 23:27:37:266
-1.647;-9.67;0.212;-2.393;-9.51;0.058;0.724;-0.174;0.186;-0.108;0.371;-0.013;8.1;-5.7;28.5;51.08;2288;2018-04-16 23:27:37:276
-1.647;-9.67;0.212;-2.393;-9.51;0.058;0.724;-0.174;0.186;-0.108;0.371;-0.013;8.1;-5.7;28.5;51.08;2298;2018-04-16 23:27:37:286
-1.66;-9.659;0.101;-2.382;-9.513;0.023;0.722;-0.147;0.078;-0.087;0.354;-0.018;8.2;-5.7;28.5;51.08;2307;2018-04-16 23:27:37:295
-1.695;-9.621;0.045;-2.372;-9.515;0.002;0.657;-0.081;0.041;-0.048;0.27;-0.02;8.3;-5.7;28.4;51.08;2318;2018-04-16 23:27:37:306
-1.694;-9.58;0.043;-2.372;-9.515;0.002;0.657;-0.081;0.041;-0.028;0.204;-0.02;8.3;-5.7;28.4;51.08;2328;2018-04-16 23:27:37:316
-1.694;-9.58;0.043;-2.362;-9.518;-0.009;0.669;-0.084;0.088;-0.023;0.127;-0.021;8.4;-5.7;28.4;51.08;2337;2018-04-16 23:27:37:325
-1.711;-9.615;0.102;-2.362;-9.518;-0.009;0.669;-0.084;0.088;-0.023;0.127;-0.021;8.4;-5.7;28.4;51.77;2347;2018-04-16 23:27:37:335
-1.711;-9.615;0.102;-2.362;-9.518;-0.009;0.669;-0.084;0.088;-0.032;0.079;-0.018;8.4;-5.7;28.4;51.77;2358;2018-04-16 23:27:37:346
-1.751;-9.584;0.166;-2.352;-9.52;-0.018;0.601;-0.064;0.184;-0.032;0.079;-0.018;8.4;-5.7;28.4;51.77;2368;2018-04-16 23:27:37:356
-1.792;-9.614;0.23;-2.34;-9.523;-0.025;0.548;-0.091;0.254;-0.044;0.038;-0.016;8.5;-5.7;28.5;51.77;2378;2018-04-16 23:27:37:366
-1.792;-9.614;0.23;-2.34;-9.523;-0.025;0.548;-0.091;0.254;-0.044;0.038;-0.016;8.5;-5.7;28.5;51.77;2388;2018-04-16 23:27:37:376
-1.766;-9.656;0.215;-2.34;-9.523;-0.025;0.548;-0.091;0.254;-0.032;0.017;-0.011;8.5;-5.7;28.5;51.77;2397;2018-04-16 23:27:37:385
-1.676;-9.567;0.17;-2.328;-9.526;-0.028;0.592;-0.112;0.229;-0.02;-0.004;-0.002;8.5;-5.8;28.5;51.77;2409;2018-04-16 23:27:37:397
-1.676;-9.567;0.17;-2.328;-9.526;-0.028;0.592;-0.112;0.229;-0.02;-0.004;-0.002;8.5;-5.8;28.5;51.77;2418;2018-04-16 23:27:37:406
-1.63;-9.486;0.104;-2.315;-9.529;-0.027;0.685;0.044;0.131;-0.011;-0.028;-0.002;8.5;-5.8;28.6;51.77;2428;2018-04-16 23:27:37:416
-1.627;-9.467;0.072;-2.315;-9.529;-0.027;0.685;0.044;0.131;0.005;-0.092;-0.002;8.5;-5.8;28.6;51.77;2437;2018-04-16 23:27:37:425
-1.69;-9.572;0.142;-2.305;-9.532;-0.02;0.664;0.032;0.113;0.016;-0.133;-0.007;8.5;-5.9;28.7;51.77;2448;2018-04-16 23:27:37:436
-1.69;-9.572;0.142;-2.305;-9.532;-0.02;0.664;0.032;0.113;0.016;-0.133;-0.007;8.5;-5.9;28.7;51.77;2458;2018-04-16 23:27:37:446
-1.748;-9.661;0.199;-2.297;-9.534;-0.007;0.56;-0.109;0.192;0.017;-0.161;-0.005;8.5;-5.9;28.9;51.77;2467;2018-04-16 23:27:37:455
-1.774;-9.681;0.176;-2.293;-9.535;0.005;0.519;-0.146;0.171;0.018;-0.149;0.001;8.4;-5.9;28.8;51.77;2478;2018-04-16 23:27:37:466
-1.774;-9.681;0.176;-2.293;-9.535;0.005;0.519;-0.146;0.171;0.027;-0.145;0.009;8.4;-5.9;28.8;51.77;2488;2018-04-16 23:27:37:476
-1.702;-9.628;0.087;-2.29;-9.535;0.023;0.588;-0.093;0.064;0.056;-0.175;0.017;8.4;-6.0;28.9;51.77;2497;2018-04-16 23:27:37:485
-1.702;-9.628;0.087;-2.29;-9.535;0.023;0.588;-0.093;0.064;0.056;-0.175;0.017;8.4;-6.0;28.9;51.77;2508;2018-04-16 23:27:37:496
-1.629;-9.568;0.043;-2.29;-9.535;0.023;0.588;-0.093;0.064;0.073;-0.203;0.021;8.4;-6.0;28.9;51.77;2517;2018-04-16 23:27:37:505
-1.563;-9.531;0.04;-2.288;-9.536;0.046;0.682;-0.026;-0.003;0.072;-0.216;0.022;8.4;-6.0;28.9;51.77;2528;2018-04-16 23:27:37:516
-1.548;-9.597;0.007;-2.284;-9.537;0.068;0.736;-0.06;-0.061;0.06;-0.222;0.016;8.3;-6.0;29.0;51.77;2537;2018-04-16 23:27:37:525
-1.548;-9.597;0.007;-2.284;-9.537;0.068;0.736;-0.06;-0.061;0.06;-0.222;0.016;8.3;-6.0;29.0;51.77;2548;2018-04-16 23:27:37:536
-1.538;-9.638;-0.017;-2.281;-9.537;0.077;0.742;-0.1;-0.093;0.054;-0.226;0.009;8.4;-6.0;29.0;51.77;2559;2018-04-16 23:27:37:547
-1.538;-9.638;-0.017;-2.281;-9.537;0.077;0.742;-0.1;-0.093;0.054;-0.226;0.009;8.4;-6.0;29.0;51.77;2567;2018-04-16 23:27:37:555
-1.659;-9.752;-0.008;-2.271;-9.539;0.104;0.612;-0.212;-0.112;0.043;-0.25;0.0;8.3;-5.9;29.1;51.77;2578;2018-04-16 23:27:37:566
-1.659;-9.752;-0.008;-2.271;-9.539;0.104;0.612;-0.212;-0.112;0.039;-0.254;0.0;8.3;-5.9;29.1;51.77;2587;2018-04-16 23:27:37:575
-1.671;-9.667;0.017;-2.265;-9.541;0.119;0.595;-0.067;-0.076;0.033;-0.242;0.004;8.3;-5.9;29.1;51.77;2598;2018-04-16 23:27:37:586
-1.671;-9.552;0.043;-2.265;-9.541;0.119;0.595;-0.067;-0.076;0.016;-0.195;0.005;8.3;-5.9;29.1;51.77;2607;2018-04-16 23:27:37:595
-1.671;-9.552;0.043;-2.26;-9.542;0.127;0.573;0.038;-0.059;0.001;-0.148;0.005;8.4;-5.9;29.1;51.77;2618;2018-04-16 23:27:37:606
-1.687;-9.499;0.077;-2.26;-9.542;0.127;0.573;0.038;-0.059;0.001;-0.148;0.005;8.4;-5.9;29.1;51.77;2627;2018-04-16 23:27:37:615
-1.675;-9.527;0.077;-2.255;-9.543;0.125;0.58;0.016;-0.048;-0.022;-0.056;0.001;8.5;-5.9;29.1;51.77;2637;2018-04-16 23:27:37:625
-1.701;-9.607;0.045;-2.252;-9.544;0.12;0.551;-0.063;-0.074;-0.043;0.037;-0.001;8.5;-5.9;29.1;51.77;2648;2018-04-16 23:27:37:636
-1.701;-9.607;0.045;-2.252;-9.544;0.12;0.551;-0.063;-0.074;-0.043;0.037;-0.001;8.5;-5.9;29.1;51.09;2657;2018-04-16 23:27:37:645
-1.727;-9.712;0.043;-2.244;-9.546;0.105;0.517;-0.166;-0.062;-0.051;0.079;-0.004;8.6;-5.8;29.1;51.09;2667;2018-04-16 23:27:37:655
-1.727;-9.712;0.043;-2.244;-9.546;0.105;0.517;-0.166;-0.062;-0.053;0.133;0.0;8.6;-5.8;29.1;51.09;2678;2018-04-16 23:27:37:666
-1.696;-9.621;0.043;-2.239;-9.547;0.087;0.543;-0.074;-0.044;-0.053;0.133;0.0;8.6;-5.8;29.0;51.09;2688;2018-04-16 23:27:37:676
-1.696;-9.621;0.043;-2.239;-9.547;0.087;0.543;-0.074;-0.044;-0.067;0.173;0.002;8.6;-5.8;29.0;51.09;2698;2018-04-16 23:27:37:686
-1.683;-9.513;0.09;-2.235;-9.548;0.064;0.552;0.035;0.026;-0.081;0.21;0.005;8.7;-5.8;29.1;51.09;2708;2018-04-16 23:27:37:696
-1.683;-9.513;0.09;-2.235;-9.548;0.064;0.552;0.035;0.026;-0.081;0.21;0.005;8.7;-5.8;29.1;51.09;2717;2018-04-16 23:27:37:705
-1.672;-9.446;0.169;-2.23;-9.55;0.034;0.553;0.146;0.149;-0.106;0.309;0.0;8.7;-5.8;29.0;51.09;2727;2018-04-16 23:27:37:715
-1.672;-9.446;0.169;-2.23;-9.55;0.034;0.553;0.146;0.149;-0.106;0.309;0.0;8.7;-5.8;29.0;51.09;2738;2018-04-16 23:27:37:726
-1.664;-9.391;0.22;-2.228;-9.55;0.015;0.562;0.111;0.216;-0.112;0.353;-0.002;8.8;-5.8;29.0;51.09;2748;2018-04-16 23:27:37:736
-1.693;-9.512;0.207;-2.222;-9.552;-0.021;0.562;0.111;0.216;-0.106;0.401;-0.007;8.8;-5.7;28.9;51.09;2757;2018-04-16 23:27:37:745
-1.693;-9.512;0.207;-2.222;-9.552;-0.021;0.496;-0.077;0.21;-0.106;0.401;-0.007;8.8;-5.7;28.9;51.09;2767;2018-04-16 23:27:37:755
-1.737;-9.701;0.158;-2.215;-9.553;-0.051;0.496;-0.077;0.21;-0.076;0.382;-0.009;8.8;-5.8;29.0;51.09;2778;2018-04-16 23:27:37:766
-1.81;-9.754;0.108;-2.215;-9.553;-0.051;0.403;-0.2;0.168;-0.043;0.32;-0.004;8.8;-5.8;29.0;51.09;2787;2018-04-16 23:27:37:775
-1.81;-9.754;0.108;-2.215;-9.553;-0.051;0.403;-0.2;0.168;-0.043;0.32;-0.004;8.8;-5.8;29.0;51.09;2798;2018-04-16 23:27:37:786
-1.784;-9.714;0.073;-2.211;-9.554;-0.068;0.427;-0.16;0.142;0.005;0.171;0.011;8.8;-5.8;29.0;51.09;2808;2018-04-16 23:27:37:796
-1.729;-9.619;0.043;-2.211;-9.554;-0.068;0.427;-0.16;0.142;0.005;0.171;0.011;8.8;-5.8;29.0;51.09;2818;2018-04-16 23:27:37:806
-1.654;-9.521;0.043;-2.208;-9.555;-0.074;0.508;-0.011;0.106;0.011;0.079;0.017;8.8;-5.9;29.0;51.09;2827;2018-04-16 23:27:37:815
-1.654;-9.521;0.043;-2.205;-9.555;-0.074;0.57;0.047;0.148;0.0;0.032;0.017;8.8;-5.9;28.9;51.09;2838;2018-04-16 23:27:37:826
-1.615;-9.536;0.124;-2.205;-9.555;-0.074;0.57;0.047;0.148;0.0;0.032;0.017;8.8;-5.9;28.9;51.09;2848;2018-04-16 23:27:37:836
-1.615;-9.536;0.124;-2.202;-9.556;-0.076;0.6;-0.014;0.274;-0.031;0.012;0.017;8.7;-5.9;29.0;51.09;2858;2018-04-16 23:27:37:846
-1.566;-9.638;0.206;-2.202;-9.556;-0.076;0.6;-0.014;0.274;-0.031;0.012;0.017;8.7;-5.9;29.0;51.09;2867;2018-04-16 23:27:37:855
-1.566;-9.638;0.206;-2.202;-9.556;-0.076;0.6;-0.014;0.274;-0.04;0.006;0.013;8.7;-5.9;29.0;51.09;2878;2018-04-16 23:27:37:866
-1.589;-9.677;0.19;-2.193;-9.558;-0.079;0.605;-0.119;0.269;-0.034;-0.001;0.01;8.7;-6.0;29.0;51.09;2888;2018-04-16 23:27:37:876
-1.656;-9.668;0.113;-2.185;-9.56;-0.073;0.53;-0.108;0.185;0.013;-0.076;0.006;8.6;-6.0;29.0;51.09;2898;2018-04-16 23:27:37:886
-1.656;-9.668;0.113;-2.185;-9.56;-0.073;0.53;-0.108;0.185;0.013;-0.076;0.006;8.6;-6.0;29.0;51.09;2907;2018-04-16 23:27:37:895
-1.682;-9.619;0.043;-2.181;-9.561;-0.051;0.499;-0.058;0.094;0.065;-0.169;0.002;8.6;-6.1;29.0;51.09;2918;2018-04-16 23:27:37:906
-1.682;-9.619;0.043;-2.181;-9.561;-0.051;0.499;-0.058;0.094;0.101;-0.263;0.009;8.6;-6.1;29.0;51.09;2928;2018-04-16 23:27:37:916
-1.663;-9.56;0.041;-2.181;-9.561;-0.051;0.499;-0.058;0.094;0.101;-0.263;0.009;8.6;-6.1;29.0;51.09;2938;2018-04-16 23:27:37:926
-1.603;-9.515;0.036;-2.178;-9.562;-0.018;0.55;0.032;0.056;0.109;-0.304;0.011;8.5;-6.1;29.1;51.09;2948;2018-04-16 23:27:37:936
-1.603;-9.515;0.036;-2.178;-9.562;-0.018;0.55;0.032;0.056;0.095;-0.34;0.009;8.5;-6.1;29.1;51.09;2959;2018-04-16 23:27:37:947
-1.608;-9.518;0.031;-2.174;-9.563;0.014;0.566;0.045;0.017;0.083;-0.343;0.005;8.4;-6.1;29.3;51.09;2968;2018-04-16 23:27:37:956
-1.608;-9.518;0.031;-2.174;-9.563;0.014;0.566;0.045;0.017;0.083;-0.343;0.005;8.4;-6.1;29.3;51.72;2978;2018-04-16 23:27:37:966
-1.656;-9.56;0.043;-2.168;-9.564;0.038;0.512;0.004;0.005;0.049;-0.34;-0.001;8.4;-6.1;29.1;51.72;2987;2018-04-16 23:27:37:975
-1.656;-9.56;0.043;-2.168;-9.564;0.038;0.512;0.004;0.005;0.011;-0.272;-0.01;8.4;-6.1;29.1;51.72;2999;2018-04-16 23:27:37:987
-1.799;-9.614;0.147;-2.159;-9.566;0.061;0.36;-0.048;0.087;0.017;-0.225;-0.007;8.3;-6.2;29.0;51.72;3007;2018-04-16 23:27:37:995
-1.799;-9.614;0.147;-2.159;-9.566;0.061;0.36;-0.048;0.087;0.017;-0.225;-0.007;8.3;-6.2;29.0;51.72;3018;2018-04-16 23:27:38:006
-1.828;-9.677;0.123;-2.157;-9.566;0.069;0.359;-0.068;0.079;0.029;-0.2;-0.005;8.3;-6.2;29.0;51.72;3027;2018-04-16 23:27:38:015
-1.836;-9.687;0.043;-2.154;-9.567;0.086;0.317;-0.12;-0.043;0.06;-0.177;0.004;8.2;-6.2;28.9;51.72;3037;2018-04-16 23:27:38:025
-1.836;-9.687;0.043;-2.154;-9.567;0.086;0.317;-0.12;-0.043;0.06;-0.177;0.004;8.2;-6.2;28.9;51.72;3048;2018-04-16 23:27:38:036
-1.824;-9.602;0.018;-2.151;-9.567;0.104;0.328;-0.023;-0.093;0.062;-0.161;0.005;8.3;-6.2;28.7;51.72;3057;2018-04-16 23:27:38:045
-1.815;-9.529;0.008;-2.151;-9.567;0.104;0.328;-0.023;-0.093;0.045;-0.133;0.009;8.3;-6.2;28.7;51.72;3067;2018-04-16 23:27:38:055
-1.815;-9.529;0.008;-2.15;-9.567;0.114;0.331;0.059;-0.074;0.022;-0.1;0.011;8.3;-6.2;28.7;51.72;3080;2018-04-16 23:27:38:068
-1.821;-9.518;0.073;-2.15;-9.567;0.114;0.331;0.059;-0.074;0.022;-0.1;0.011;8.3;-6.2;28.7;51.72;3088;2018-04-16 23:27:38:076
-1.805;-9.549;0.091;-2.149;-9.568;0.109;0.343;0.018;-0.018;-0.022;-0.017;0.01;8.3;-6.1;28.7;51.72;3098;2018-04-16 23:27:38:086
-1.805;-9.549;0.091;-2.149;-9.568;0.109;0.343;0.018;-0.018;-0.054;0.07;0.013;8.3;-6.1;28.7;51.72;3108;2018-04-16 23:27:38:096
-1.761;-9.629;0.105;-2.146;-9.568;0.094;0.385;-0.061;0.011;-0.059;0.111;0.016;8.4;-6.1;28.7;51.72;3117;2018-04-16 23:27:38:105
-1.67;-9.679;0.108;-2.146;-9.568;0.094;0.385;-0.061;0.011;-0.059;0.111;0.016;8.4;-6.1;28.7;51.72;3127;2018-04-16 23:27:38:115
-1.67;-9.679;0.108;-2.144;-9.569;0.078;0.539;-0.133;0.014;-0.051;0.15;0.013;8.4;-6.1;28.6;51.72;3138;2018-04-16 23:27:38:126
-1.589;-9.641;0.059;-2.144;-9.569;0.078;0.539;-0.133;0.014;-0.039;0.175;0.009;8.4;-6.1;28.6;51.72;3147;2018-04-16 23:27:38:135
-1.589;-9.641;0.059;-2.14;-9.57;0.064;0.528;-0.033;-0.019;-0.029;0.175;0.004;8.4;-6.1;28.4;51.72;3157;2018-04-16 23:27:38:145
-1.638;-9.579;0.043;-2.14;-9.57;0.064;0.528;-0.033;-0.019;-0.022;0.167;0.0;8.4;-6.1;28.4;51.72;3168;2018-04-16 23:27:38:156
-1.638;-9.579;0.043;-2.135;-9.571;0.053;0.449;0.015;-0.01;-0.016;0.155;-0.005;8.5;-6.1;28.3;51.72;3178;2018-04-16 23:27:38:166
-1.706;-9.552;0.043;-2.135;-9.571;0.053;0.449;0.015;-0.01;-0.016;0.155;-0.005;8.5;-6.1;28.3;51.72;3187;2018-04-16 23:27:38:175
-1.732;-9.578;0.049;-2.135;-9.571;0.053;0.449;0.015;-0.01;-0.026;0.134;-0.005;8.5;-6.1;28.3;51.72;3198;2018-04-16 23:27:38:186
-1.718;-9.606;0.081;-2.131;-9.572;0.043;0.398;-0.019;0.017;-0.04;0.136;0.0;8.6;-6.1;28.2;51.72;3208;2018-04-16 23:27:38:196
-1.718;-9.606;0.081;-2.126;-9.573;0.028;0.431;-0.042;0.085;-0.053;0.142;0.0;8.6;-6.1;28.1;51.72;3219;2018-04-16 23:27:38:207
-1.676;-9.608;0.135;-2.126;-9.573;0.028;0.431;-0.042;0.085;-0.062;0.145;0.002;8.6;-6.1;28.1;51.72;3228;2018-04-16 23:27:38:216
-1.676;-9.608;0.135;-2.126;-9.573;0.028;0.431;-0.042;0.085;-0.062;0.145;0.002;8.6;-6.1;28.1;51.72;3238;2018-04-16 23:27:38:226
-1.684;-9.607;0.119;-2.123;-9.574;0.012;0.438;-0.033;0.107;-0.059;0.142;0.002;8.6;-6.1;28.1;51.72;3248;2018-04-16 23:27:38:236
-1.684;-9.607;0.119;-2.123;-9.574;0.012;0.438;-0.033;0.107;-0.043;0.122;0.001;8.6;-6.1;28.1;51.72;3258;2018-04-16 23:27:38:246
-1.682;-9.543;0.095;-2.119;-9.575;0.001;0.437;0.032;0.093;-0.009;0.064;0.005;8.6;-6.1;27.9;51.72;3267;2018-04-16 23:27:38:255
-1.682;-9.543;0.095;-2.119;-9.575;0.001;0.437;0.032;0.093;-0.009;0.064;0.005;8.6;-6.1;27.9;51.72;3278;2018-04-16 23:27:38:266
-1.674;-9.536;0.071;-2.116;-9.576;0.0;0.439;0.087;0.086;0.006;0.01;0.001;8.7;-6.1;28.0;51.72;3288;2018-04-16 23:27:38:276
-1.674;-9.536;0.071;-2.116;-9.576;0.0;0.439;0.087;0.086;0.006;0.01;0.001;8.7;-6.1;28.0;51.72;3298;2018-04-16 23:27:38:286
-1.674;-9.618;0.08;-2.111;-9.577;0.001;0.441;0.015;0.073;-0.002;-0.015;0.001;8.7;-6.1;28.0;51.72;3307;2018-04-16 23:27:38:295
-1.69;-9.618;0.08;-2.106;-9.578;0.003;0.398;-0.081;0.068;-0.001;-0.029;0.002;8.6;-6.1;28.1;52.01;3318;2018-04-16 23:27:38:306
-1.721;-9.667;0.061;-2.106;-9.578;0.003;0.398;-0.081;0.068;-0.001;-0.029;0.002;8.6;-6.1;28.1;52.01;3327;2018-04-16 23:27:38:315
-1.756;-9.67;0.043;-2.102;-9.579;0.009;0.346;-0.092;0.034;0.027;-0.11;0.01;8.6;-6.1;28.1;52.01;3337;2018-04-16 23:27:38:325
-1.738;-9.649;0.043;-2.102;-9.579;0.009;0.346;-0.092;0.034;0.04;-0.144;0.015;8.6;-6.1;28.1;52.01;3349;2018-04-16 23:27:38:337
-1.738;-9.649;0.043;-2.102;-9.579;0.009;0.346;-0.092;0.034;0.04;-0.144;0.015;8.6;-6.1;28.1;52.01;3358;2018-04-16 23:27:38:346
-1.699;-9.585;0.072;-2.101;-9.579;0.023;0.362;-0.043;0.036;0.046;-0.165;0.017;8.6;-6.1;28.2;52.01;3370;2018-04-16 23:27:38:358
-1.699;-9.585;0.072;-2.1;-9.579;0.038;0.458;0.024;0.033;0.046;-0.155;0.017;8.6;-6.1;28.2;52.01;3380;2018-04-16 23:27:38:368
-1.615;-9.547;0.072;-2.1;-9.579;0.038;0.458;0.024;0.033;0.046;-0.155;0.017;8.6;-6.1;28.2;52.01;3387;2018-04-16 23:27:38:375
-1.545;-9.547;0.071;-2.1;-9.579;0.038;0.458;0.024;0.033;0.042;-0.143;0.016;8.6;-6.1;28.2;52.01;3398;2018-04-16 23:27:38:386
-1.545;-9.547;0.071;-2.097;-9.58;0.052;0.553;0.024;0.017;0.038;-0.125;0.006;8.6;-6.2;28.2;52.01;3408;2018-04-16 23:27:38:396
-1.601;-9.594;0.068;-2.097;-9.58;0.052;0.553;0.024;0.017;0.038;-0.125;0.006;8.6;-6.2;28.2;52.01;3418;2018-04-16 23:27:38:406
-1.601;-9.594;0.068;-2.092;-9.581;0.063;0.453;-0.039;-0.013;0.038;-0.089;-0.002;8.6;-6.2;28.3;52.01;3428;2018-04-16 23:27:38:416
-1.712;-9.687;0.043;-2.089;-9.581;0.068;0.377;-0.106;-0.025;0.043;-0.083;-0.006;8.6;-6.2;28.3;52.01;3438;2018-04-16 23:27:38:426
-1.712;-9.687;0.043;-2.089;-9.581;0.068;0.377;-0.106;-0.025;0.043;-0.083;-0.006;8.6;-6.2;28.3;52.01;3447;2018-04-16 23:27:38:435
-1.772;-9.689;-0.05;-2.085;-9.582;0.081;0.313;-0.107;-0.132;0.064;-0.116;-0.004;8.6;-6.2;28.4;52.01;3457;2018-04-16 23:27:38:445
-1.772;-9.689;-0.05;-2.085;-9.582;0.081;0.313;-0.107;-0.132;0.064;-0.116;-0.004;8.6;-6.2;28.4;52.01;3467;2018-04-16 23:27:38:455
-1.73;-9.585;-0.071;-2.082;-9.583;0.101;0.352;-0.003;-0.171;0.067;-0.171;0.009;8.6;-6.2;28.6;52.01;3478;2018-04-16 23:27:38:466
-1.693;-9.527;0.017;-2.079;-9.583;0.117;0.387;0.056;-0.101;0.067;-0.171;0.009;8.7;-6.1;28.8;52.01;3487;2018-04-16 23:27:38:475
-1.693;-9.527;0.017;-2.079;-9.583;0.117;0.387;0.056;-0.101;0.067;-0.171;0.009;8.7;-6.1;28.8;52.01;3498;2018-04-16 23:27:38:486
-1.642;-9.536;0.089;-2.077;-9.583;0.122;0.434;0.047;-0.033;-0.007;-0.051;0.009;8.7;-6.2;28.7;52.01;3507;2018-04-16 23:27:38:495
-1.642;-9.536;0.089;-2.077;-9.583;0.122;0.434;0.047;-0.033;-0.007;-0.051;0.009;8.7;-6.2;28.7;52.01;3518;2018-04-16 23:27:38:506
-1.662;-9.658;0.115;-2.074;-9.584;0.112;0.412;-0.074;0.002;-0.033;0.013;0.007;8.7;-6.2;28.8;52.01;3527;2018-04-16 23:27:38:515
-1.662;-9.658;0.115;-2.074;-9.584;0.112;0.412;-0.074;0.002;-0.043;0.106;-0.004;8.7;-6.2;28.8;52.01;3538;2018-04-16 23:27:38:526
-1.7;-9.683;0.044;-2.07;-9.585;0.1;0.37;-0.098;-0.056;-0.024;0.145;-0.002;8.8;-6.1;28.8;52.01;3547;2018-04-16 23:27:38:535
-1.7;-9.683;0.044;-2.07;-9.585;0.1;0.37;-0.098;-0.056;-0.024;0.145;-0.002;8.8;-6.1;28.8;52.01;3558;2018-04-16 23:27:38:546
-1.701;-9.657;0.007;-2.068;-9.586;0.096;0.367;-0.071;-0.089;-0.001;0.137;-0.002;8.8;-6.2;28.8;52.01;3567;2018-04-16 23:27:38:555
-1.725;-9.597;-0.047;-2.065;-9.586;0.097;0.347;-0.03;-0.158;0.024;0.1;0.0;8.8;-6.2;28.7;52.01;3578;2018-04-16 23:27:38:566
-1.677;-9.584;-0.083;-2.065;-9.586;0.097;0.347;-0.03;-0.158;0.023;0.048;0.01;8.8;-6.2;28.7;52.01;3587;2018-04-16 23:27:38:575
-1.677;-9.584;-0.083;-2.063;-9.587;0.095;0.439;0.023;-0.163;-0.002;0.034;0.015;8.8;-6.1;28.7;52.01;3598;2018-04-16 23:27:38:586
-1.602;-9.546;-0.035;-2.063;-9.587;0.095;0.439;0.023;-0.163;-0.002;0.034;0.015;8.8;-6.1;28.7;52.01;3608;2018-04-16 23:27:38:596
-1.584;-9.57;0.043;-2.059;-9.588;0.082;0.475;0.018;-0.039;-0.062;0.056;0.009;8.8;-6.1;28.7;52.01;3618;2018-04-16 23:27:38:606
-1.584;-9.57;0.043;-2.059;-9.588;0.082;0.475;0.018;-0.039;-0.062;0.056;0.009;8.8;-6.1;28.7;52.01;3627;2018-04-16 23:27:38:615
-1.61;-9.567;0.16;-2.059;-9.588;0.082;0.475;0.018;-0.039;-0.092;0.105;0.004;8.8;-6.1;28.7;52.31;3638;2018-04-16 23:27:38:626
-1.61;-9.567;0.16;-2.054;-9.589;0.061;0.444;0.022;0.099;-0.092;0.161;0.001;8.9;-6.1;28.7;52.31;3647;2018-04-16 23:27:38:635
-1.689;-9.603;0.254;-2.051;-9.59;0.04;0.345;-0.007;0.204;-0.071;0.191;0.0;8.9;-6.1;28.8;52.31;3658;2018-04-16 23:27:38:646
-1.717;-9.602;0.233;-2.051;-9.59;0.04;0.345;-0.007;0.204;-0.071;0.191;0.0;8.9;-6.1;28.8;52.31;3668;2018-04-16 23:27:38:656
-1.717;-9.602;0.233;-2.051;-9.59;0.04;0.345;-0.007;0.204;-0.028;0.198;-0.002;8.9;-6.1;28.9;52.31;3677;2018-04-16 23:27:38:665
-1.747;-9.598;0.139;-2.047;-9.59;0.029;0.301;-0.008;0.11;0.024;0.156;0.001;8.9;-6.1;28.9;52.31;3688;2018-04-16 23:27:38:676
-1.747;-9.598;0.139;-2.047;-9.59;0.029;0.301;-0.008;0.11;0.024;0.156;0.001;8.9;-6.1;28.9;52.31;3697;2018-04-16 23:27:38:685
-1.7;-9.592;0.031;-2.045;-9.591;0.034;0.345;-0.001;-0.003;0.054;0.065;0.011;8.9;-6.0;28.9;52.31;3708;2018-04-16 23:27:38:696
-1.7;-9.592;0.031;-2.045;-9.591;0.034;0.345;-0.001;-0.003;0.054;0.065;0.011;8.9;-6.0;28.9;52.31;3718;2018-04-16 23:27:38:706
-1.708;-9.591;0.044;-2.044;-9.591;0.039;0.336;0.0;0.006;0.043;0.035;0.012;8.8;-6.1;28.8;52.31;3727;2018-04-16 23:27:38:715
-1.708;-9.591;0.044;-2.044;-9.591;0.039;0.336;0.0;0.006;-0.015;0.034;0.022;8.8;-6.1;28.8;52.31;3738;2018-04-16 23:27:38:726
-1.706;-9.553;0.096;-2.044;-9.591;0.033;0.348;0.059;0.079;-0.015;0.034;0.022;8.8;-6.1;28.8;52.31;3747;2018-04-16 23:27:38:735
-1.712;-9.54;0.193;-2.044;-9.591;0.033;0.348;0.059;0.079;-0.05;0.049;0.023;8.8;-6.1;28.8;52.31;3758;2018-04-16 23:27:38:746
-1.712;-9.54;0.193;-2.045;-9.591;0.022;0.271;0.024;0.235;-0.056;0.071;0.024;8.7;-6.0;28.7;52.31;3767;2018-04-16 23:27:38:755
-1.786;-9.58;0.275;-2.045;-9.591;0.022;0.271;0.024;0.235;-0.051;0.09;0.026;8.7;-6.0;28.7;52.31;3778;2018-04-16 23:27:38:766
-1.811;-9.524;0.291;-2.045;-9.591;0.022;0.271;0.024;0.235;-0.051;0.09;0.026;8.7;-6.0;28.7;52.31;3788;2018-04-16 23:27:38:776
-1.808;-9.442;0.268;-2.048;-9.59;0.013;0.237;0.12;0.278;-0.032;0.111;0.029;8.7;-6.1;28.7;52.31;3798;2018-04-16 23:27:38:786
-1.793;-9.476;0.242;-2.053;-9.589;0.013;0.259;0.113;0.229;-0.004;0.115;0.033;8.6;-6.0;28.8;52.31;3807;2018-04-16 23:27:38:795
-1.793;-9.476;0.242;-2.053;-9.589;0.013;0.259;0.113;0.229;0.055;0.097;0.039;8.6;-6.0;28.8;52.31;3819;2018-04-16 23:27:38:807
-1.793;-9.476;0.242;-2.053;-9.589;0.013;0.259;0.113;0.229;0.092;0.084;0.044;8.6;-6.0;28.9;52.31;3827;2018-04-16 23:27:38:815
-1.712;-9.511;0.201;-2.058;-9.588;0.027;0.346;0.077;0.174;0.094;0.089;0.044;8.6;-6.0;28.9;52.31;3838;2018-04-16 23:27:38:826
-1.592;-9.468;0.168;-2.063;-9.587;0.041;0.487;0.124;0.134;0.094;0.089;0.044;8.5;-6.0;28.8;52.31;3848;2018-04-16 23:27:38:836
-1.541;-9.458;0.182;-2.063;-9.587;0.041;0.487;0.124;0.134;0.064;0.127;0.049;8.5;-6.0;28.8;52.31;3858;2018-04-16 23:27:38:846
-1.541;-9.458;0.182;-2.067;-9.586;0.048;0.539;0.104;0.159;0.064;0.127;0.049;8.5;-5.9;28.9;52.31;3868;2018-04-16 23:27:38:856
-1.53;-9.482;0.205;-2.067;-9.586;0.048;0.539;0.104;0.159;0.053;0.147;0.046;8.5;-5.9;28.9;52.31;3878;2018-04-16 23:27:38:866
-1.56;-9.55;0.265;-2.071;-9.585;0.052;0.511;0.035;0.212;0.054;0.162;0.044;8.4;-5.9;28.9;52.31;3888;2018-04-16 23:27:38:876
-1.56;-9.55;0.265;-2.071;-9.585;0.052;0.511;0.035;0.212;0.072;0.158;0.048;8.4;-5.9;28.9;52.31;3898;2018-04-16 23:27:38:886
-1.599;-9.578;0.376;-2.076;-9.584;0.064;0.477;0.006;0.312;0.072;0.158;0.048;8.4;-5.9;28.9;52.31;3908;2018-04-16 23:27:38:896
-1.599;-9.578;0.376;-2.076;-9.584;0.064;0.477;0.006;0.312;0.112;0.171;0.053;8.4;-5.9;28.9;52.31;3918;2018-04-16 23:27:38:906
-1.549;-9.552;0.358;-2.081;-9.583;0.085;0.532;0.031;0.273;0.151;0.194;0.05;8.3;-5.9;28.8;52.31;3928;2018-04-16 23:27:38:916
-1.549;-9.552;0.358;-2.081;-9.583;0.085;0.532;0.031;0.273;0.175;0.197;0.049;8.3;-5.9;28.8;52.31;3938;2018-04-16 23:27:38:926
-1.453;-9.457;0.309;-2.085;-9.582;0.115;0.632;0.125;0.194;0.175;0.197;0.049;8.2;-5.9;28.9;52.31;3948;2018-04-16 23:27:38:936
-1.453;-9.457;0.309;-2.085;-9.582;0.115;0.632;0.125;0.194;0.2;0.194;0.044;8.2;-5.9;28.9;50.94;3958;2018-04-16 23:27:38:946
-1.384;-9.51;0.267;-2.087;-9.581;0.148;0.708;0.048;0.098;0.213;0.195;0.044;8.1;-5.9;28.9;50.94;3967;2018-04-16 23:27:38:955
-1.34;-9.645;0.16;-2.087;-9.581;0.148;0.708;0.048;0.098;0.22;0.177;0.037;8.1;-5.9;28.9;50.94;3977;2018-04-16 23:27:38:965
-1.34;-9.645;0.16;-2.087;-9.58;0.184;0.778;-0.14;-0.079;0.22;0.177;0.037;8.0;-5.9;28.7;50.94;3987;2018-04-16 23:27:38:975
-1.284;-9.748;0.068;-2.087;-9.58;0.184;0.778;-0.14;-0.079;0.236;0.106;0.037;8.0;-5.9;28.7;50.94;3997;2018-04-16 23:27:38:985
-1.276;-9.801;-0.068;-2.086;-9.58;0.228;0.81;-0.221;-0.297;0.259;-0.038;0.029;8.0;-5.8;28.8;50.94;4007;2018-04-16 23:27:38:995
-1.276;-9.801;-0.068;-2.086;-9.58;0.228;0.81;-0.221;-0.297;0.281;-0.177;0.026;8.0;-5.8;28.8;50.94;4017;2018-04-16 23:27:39:005
-1.349;-9.907;-0.232;-2.083;-9.579;0.291;0.733;-0.329;-0.523;0.281;-0.177;0.026;8.0;-5.7;28.9;50.94;4027;2018-04-16 23:27:39:015
-1.349;-9.907;-0.232;-2.083;-9.579;0.291;0.733;-0.329;-0.523;0.32;-0.426;0.024;8.0;-5.7;28.9;50.94;4037;2018-04-16 23:27:39:025
-1.423;-9.823;-0.33;-2.078;-9.577;0.375;0.655;-0.247;-0.705;0.351;-0.695;0.029;7.9;-5.6;28.8;50.94;4047;2018-04-16 23:27:39:035
-1.423;-9.823;-0.33;-2.078;-9.577;0.375;0.655;-0.247;-0.705;0.358;-0.865;0.035;7.9;-5.6;28.8;50.94;4057;2018-04-16 23:27:39:045
-1.445;-9.771;-0.383;-2.072;-9.574;0.474;0.627;-0.197;-0.857;0.358;-0.865;0.035;7.9;-5.6;28.8;50.94;4067;2018-04-16 23:27:39:055
-1.445;-9.771;-0.383;-2.072;-9.574;0.474;0.627;-0.197;-0.857;0.367;-1.079;0.045;7.9;-5.6;28.8;50.94;4077;2018-04-16 23:27:39:065
-1.483;-9.708;-0.43;-2.064;-9.569;0.583;0.57;-0.14;-1.035;0.356;-1.25;0.061;7.9;-5.5;28.8;50.94;4087;2018-04-16 23:27:39:075
-1.533;-9.72;-0.486;-2.064;-9.569;0.583;0.57;-0.14;-1.035;0.337;-1.332;0.072;7.9;-5.5;28.8;50.94;4097;2018-04-16 23:27:39:085
-1.533;-9.72;-0.486;-2.058;-9.564;0.689;0.459;-0.208;-1.202;0.337;-1.332;0.072;7.9;-5.4;28.7;50.94;4107;2018-04-16 23:27:39:095
-1.62;-9.789;-0.528;-2.058;-9.564;0.689;0.459;-0.208;-1.202;0.285;-1.388;0.095;7.9;-5.4;28.7;50.94;4117;2018-04-16 23:27:39:105
-1.726;-10.013;-0.735;-2.058;-9.557;0.776;0.332;-0.456;-1.511;0.165;-1.327;0.136;8.1;-5.3;28.6;50.94;4127;2018-04-16 23:27:39:115
-1.726;-10.013;-0.735;-2.058;-9.557;0.776;0.332;-0.456;-1.511;0.081;-1.244;0.151;8.1;-5.3;28.6;50.94;4137;2018-04-16 23:27:39:125
-1.738;-10.052;-0.876;-2.067;-9.551;0.823;0.319;-0.443;-1.709;-0.012;-1.119;0.164;8.3;-5.2;28.6;50.94;4147;2018-04-16 23:27:39:135
-1.78;-9.876;-0.863;-2.067;-9.551;0.823;0.319;-0.443;-1.709;-0.111;-0.951;0.175;8.3;-5.2;28.6;50.94;4157;2018-04-16 23:27:39:145
-1.78;-9.876;-0.863;-2.086;-9.548;0.816;0.313;-0.184;-1.605;-0.111;-0.951;0.175;8.4;-5.1;28.5;50.94;4168;2018-04-16 23:27:39:156
-1.767;-9.649;-0.761;-2.086;-9.548;0.816;0.313;-0.184;-1.605;-0.248;-0.615;0.189;8.4;-5.1;28.5;50.94;4178;2018-04-16 23:27:39:166
-1.688;-9.486;-0.706;-2.114;-9.546;0.755;0.426;0.06;-1.461;-0.357;-0.227;0.194;8.7;-5.0;28.6;50.94;4188;2018-04-16 23:27:39:176
-1.688;-9.486;-0.706;-2.114;-9.546;0.755;0.426;0.06;-1.461;-0.414;0.026;0.184;8.7;-5.0;28.6;50.94;4198;2018-04-16 23:27:39:186
-1.458;-9.433;-0.601;-2.145;-9.547;0.652;0.687;0.114;-1.253;-0.414;0.026;0.184;8.9;-4.9;28.5;50.94;4208;2018-04-16 23:27:39:196
-1.458;-9.433;-0.601;-2.145;-9.547;0.652;0.687;0.114;-1.253;-0.483;0.393;0.159;8.9;-4.9;28.5;50.94;4218;2018-04-16 23:27:39:206
-1.247;-9.637;-0.642;-2.17;-9.55;0.516;0.922;-0.087;-1.157;-0.533;0.702;0.121;9.2;-4.8;28.5;50.94;4228;2018-04-16 23:27:39:216
-1.247;-9.637;-0.642;-2.17;-9.55;0.516;0.922;-0.087;-1.157;-0.544;0.817;0.089;9.2;-4.8;28.5;50.94;4238;2018-04-16 23:27:39:226
-1.174;-9.735;-0.887;-2.182;-9.554;0.362;1.003;-0.226;-1.361;-0.555;0.858;0.055;9.5;-4.8;28.3;50.94;4248;2018-04-16 23:27:39:236
-1.28;-9.847;-1.375;-2.182;-9.554;0.362;1.003;-0.226;-1.361;-0.58;0.854;0.024;9.5;-4.8;28.3;50.94;4258;2018-04-16 23:27:39:246
-1.28;-9.847;-1.375;-2.184;-9.558;0.198;0.839;-0.336;-2.042;-0.58;0.854;0.024;9.7;-4.9;28.2;50.94;4268;2018-04-16 23:27:39:256
-1.363;-9.908;-2.03;-2.184;-9.558;0.198;0.839;-0.336;-2.042;-0.649;0.709;0.006;9.7;-4.9;28.2;51.66;4277;2018-04-16 23:27:39:265
-1.49;-9.936;-2.494;-2.183;-9.56;0.032;0.693;-0.375;-2.525;-0.732;0.364;0.006;9.9;-4.9;28.2;51.66;4287;2018-04-16 23:27:39:275
-1.49;-9.936;-2.494;-2.183;-9.56;0.032;0.693;-0.375;-2.525;-0.797;0.134;0.011;9.9;-4.9;28.2;51.66;4297;2018-04-16 23:27:39:285
-1.745;-10.105;-1.279;-2.182;-9.56;-0.138;0.436;-0.545;-1.141;-0.797;0.134;0.011;10.1;-4.9;28.2;51.66;4308;2018-04-16 23:27:39:296
-1.745;-10.105;-1.279;-2.182;-9.56;-0.138;0.436;-0.545;-1.141;-0.874;0.083;-0.009;10.1;-4.9;28.2;51.66;4318;2018-04-16 23:27:39:306
-1.902;-11.304;-1.687;-2.17;-9.558;-0.326;0.404;-0.98;-0.722;-0.941;0.473;-0.084;10.2;-5.0;28.2;51.66;4328;2018-04-16 23:27:39:316
-1.902;-11.304;-1.687;-2.17;-9.558;-0.326;0.404;-0.98;-0.722;-1.002;0.706;-0.139;10.2;-5.0;28.2;51.66;4337;2018-04-16 23:27:39:325
-1.99;-12.28;-3.302;-2.136;-9.555;-0.559;0.146;-2.725;-2.742;-1.09;0.85;-0.151;10.4;-5.1;28.2;51.66;4347;2018-04-16 23:27:39:335
-1.99;-12.28;-3.302;-2.136;-9.555;-0.559;0.146;-2.725;-2.742;-1.23;1.02;-0.145;10.4;-5.1;28.2;51.66;4357;2018-04-16 23:27:39:345
-1.871;-12.097;-2.682;-2.092;-9.542;-0.857;0.221;-2.554;-1.825;-1.23;1.02;-0.145;10.5;-5.3;28.2;51.66;4367;2018-04-16 23:27:39:355
-2.201;-11.993;-0.958;-2.057;-9.53;-1.055;-0.144;-2.462;0.097;-1.471;1.509;-0.143;10.5;-5.3;28.2;51.66;4377;2018-04-16 23:27:39:365
-2.201;-11.993;-0.958;-2.057;-9.53;-1.055;-0.144;-2.462;0.097;-1.449;2.61;-0.193;10.5;-5.3;28.2;51.66;4387;2018-04-16 23:27:39:375
-2.849;-11.474;-3.907;-1.939;-9.507;-1.422;-0.91;-1.967;-2.486;-1.244;2.915;-0.309;10.5;-5.6;28.2;51.66;4397;2018-04-16 23:27:39:385
-2.849;-11.474;-3.907;-1.939;-9.507;-1.422;-0.91;-1.967;-2.486;-1.244;2.915;-0.309;10.5;-5.6;28.2;51.66;4407;2018-04-16 23:27:39:395
-3.145;-10.117;-2.431;-1.797;-9.507;-1.598;-1.158;-0.127;0.979;-0.875;1.659;-0.523;10.2;-6.0;28.3;51.66;4418;2018-04-16 23:27:39:406
-2.689;-8.654;1.363;-1.797;-9.507;-1.598;-1.158;-0.127;0.979;-0.357;0.39;-0.733;10.2;-6.0;28.3;51.66;4428;2018-04-16 23:27:39:416
-2.689;-8.654;1.363;-1.642;-9.524;-1.663;-0.773;1.407;1.977;-0.266;0.408;-0.797;9.9;-6.4;28.2;51.66;4437;2018-04-16 23:27:39:425
-2.569;-8.333;0.047;-1.642;-9.524;-1.663;-0.773;1.407;1.977;-0.506;0.037;-0.715;9.9;-6.4;28.2;51.66;4447;2018-04-16 23:27:39:435
-2.569;-8.333;0.047;-1.54;-9.519;-1.786;-0.972;0.65;1.345;-0.853;-0.374;-0.486;9.4;-6.8;28.2;51.66;4457;2018-04-16 23:27:39:445
-2.58;-9.802;-1.061;-1.54;-9.519;-1.786;-0.972;0.65;1.345;-0.853;-0.374;-0.486;9.4;-6.8;28.2;51.66;4467;2018-04-16 23:27:39:455
-2.58;-9.802;-1.061;-1.587;-9.462;-2.032;-0.644;-1.165;0.792;-1.456;-0.953;0.035;8.8;-7.4;28.2;51.66;4478;2018-04-16 23:27:39:466
-1.517;-11.182;-1.991;-1.587;-9.462;-2.032;-0.644;-1.165;0.792;-1.846;-1.217;0.436;8.8;-7.4;28.2;51.66;4488;2018-04-16 23:27:39:476
-1.517;-11.182;-1.991;-1.733;-9.364;-2.342;0.195;-1.633;0.299;-1.883;-1.445;0.468;8.5;-7.9;28.4;51.66;4497;2018-04-16 23:27:39:485
-1.623;-10.339;-1.475;-1.733;-9.364;-2.342;0.195;-1.633;0.299;-1.883;-1.445;0.468;8.5;-7.9;28.4;51.66;4507;2018-04-16 23:27:39:495
-1.623;-10.339;-1.475;-1.847;-9.266;-2.628;0.187;-0.182;1.597;-1.804;-0.977;0.387;8.2;-8.6;28.2;51.66;4517;2018-04-16 23:27:39:505
-1.835;-8.436;-0.941;-1.847;-9.266;-2.628;0.187;-0.182;1.597;-1.453;-0.258;0.235;8.2;-8.6;28.2;51.66;4527;2018-04-16 23:27:39:515
-1.835;-8.436;-0.941;-1.887;-9.188;-2.86;-0.416;1.677;1.785;-1.141;-0.01;0.133;8.0;-9.0;28.8;51.66;4537;2018-04-16 23:27:39:525
-2.635;-6.987;-1.334;-1.887;-9.188;-2.86;-0.416;1.677;1.785;-0.897;0.121;0.057;8.0;-9.0;28.8;51.66;4547;2018-04-16 23:27:39:535
-2.635;-6.987;-1.334;-1.883;-9.139;-3.017;-0.861;2.427;1.431;-0.765;0.183;0.0;7.6;-9.9;28.4;51.66;4557;2018-04-16 23:27:39:545
-2.605;-6.603;-1.654;-1.883;-9.139;-3.017;-0.861;2.427;1.431;-0.765;0.183;0.0;7.6;-9.9;28.4;51.66;4568;2018-04-16 23:27:39:556
-2.605;-6.603;-1.654;-1.861;-9.1;-3.146;-0.376;2.533;1.407;-0.681;0.161;-0.064;7.3;-10.8;28.1;51.66;4578;2018-04-16 23:27:39:566
-1.952;-6.642;-1.881;-1.861;-9.1;-3.146;-0.376;2.533;1.407;-0.584;0.133;-0.145;7.3;-10.8;28.1;51.66;4587;2018-04-16 23:27:39:575
-1.952;-6.642;-1.881;-1.818;-9.072;-3.25;0.035;2.191;1.042;-0.506;0.177;-0.209;7.1;-11.4;28.1;51.66;4597;2018-04-16 23:27:39:585
-1.7;-7.057;-2.416;-1.818;-9.072;-3.25;0.035;2.191;1.042;-0.506;0.177;-0.209;7.1;-11.4;28.1;51.66;4607;2018-04-16 23:27:39:595
-1.7;-7.057;-2.416;-1.762;-9.055;-3.328;0.258;2.033;0.887;-0.397;0.158;-0.258;7.0;-11.5;28.3;58.37;4617;2018-04-16 23:27:39:605
-1.478;-6.889;-2.455;-1.762;-9.055;-3.328;0.258;2.033;0.887;-0.318;0.109;-0.268;7.0;-11.5;28.3;58.37;4627;2018-04-16 23:27:39:615
-1.478;-6.889;-2.455;-1.706;-9.045;-3.382;0.232;2.354;0.852;-0.25;0.108;-0.274;6.8;-11.8;28.3;58.37;4637;2018-04-16 23:27:39:625
-1.547;-6.45;-2.546;-1.706;-9.045;-3.382;0.232;2.354;0.852;-0.25;0.108;-0.274;6.8;-11.8;28.3;58.37;4647;2018-04-16 23:27:39:635
-1.547;-6.45;-2.546;-1.648;-9.046;-3.41;0.136;2.871;0.786;-0.133;0.122;-0.279;6.6;-12.1;28.4;58.37;4657;2018-04-16 23:27:39:645
-1.575;-5.999;-2.846;-1.648;-9.046;-3.41;0.136;2.871;0.786;-0.026;0.211;-0.261;6.6;-12.1;28.4;58.37;4667;2018-04-16 23:27:39:655
-1.575;-5.999;-2.846;-1.648;-9.046;-3.41;0.136;2.871;0.786;-0.026;0.211;-0.261;6.6;-12.1;28.4;58.37;4677;2018-04-16 23:27:39:665
-1.727;-5.862;-4.414;-1.585;-9.053;-3.42;-0.043;3.204;-0.096;0.012;0.303;-0.237;6.5;-12.6;28.3;58.37;4687;2018-04-16 23:27:39:675
-1.727;-5.862;-4.414;-1.535;-9.056;-3.437;-0.255;3.098;-2.127;-0.012;0.36;-0.187;6.4;-13.1;28.3;58.37;4697;2018-04-16 23:27:39:685
-1.579;-6.225;-6.729;-1.535;-9.056;-3.437;-0.255;3.098;-2.127;-0.123;-0.059;-0.098;6.4;-13.1;28.3;58.37;4707;2018-04-16 23:27:39:695
-1.579;-6.225;-6.729;-1.543;-9.037;-3.482;0.363;2.243;-3.939;-0.175;-0.48;-0.048;6.4;-13.4;28.1;58.37;4717;2018-04-16 23:27:39:705
-0.73;-7.562;-7.7;-1.543;-9.037;-3.482;0.363;2.243;-3.939;-0.175;-0.48;-0.048;6.4;-13.4;28.1;58.37;4727;2018-04-16 23:27:39:715
-0.73;-7.562;-7.7;-1.619;-9.021;-3.489;1.602;0.626;-4.14;-0.213;-0.982;0.045;6.5;-13.7;28.1;58.37;4737;2018-04-16 23:27:39:725
0.534;-9.183;-7.081;-1.619;-9.021;-3.489;1.602;0.626;-4.14;-0.176;-1.195;0.094;6.5;-13.7;28.1;58.37;4747;2018-04-16 23:27:39:735
0.534;-9.183;-7.081;-1.719;-9.009;-3.472;2.618;-0.567;-2.743;-0.09;-1.227;0.089;6.5;-14.1;28.1;58.37;4757;2018-04-16 23:27:39:745
0.948;-9.622;-5.282;-1.719;-9.009;-3.472;2.618;-0.567;-2.743;-0.09;-1.227;0.089;6.5;-14.1;28.1;58.37;4767;2018-04-16 23:27:39:755
0.948;-9.622;-5.282;-1.79;-9.015;-3.421;2.578;-0.205;-1.201;0.097;-1.025;0.043;6.7;-14.5;28.0;58.37;4777;2018-04-16 23:27:39:765
0.377;-8.425;-4.374;-1.79;-9.015;-3.421;2.578;-0.205;-1.201;0.308;-0.648;0.002;6.7;-14.5;28.0;58.37;4787;2018-04-16 23:27:39:775
0.377;-8.425;-4.374;-1.819;-9.039;-3.34;1.773;1.26;-0.808;0.428;-0.486;0.005;6.8;-14.7;28.0;58.37;4797;2018-04-16 23:27:39:785
-0.399;-7.537;-4.181;-1.819;-9.039;-3.34;1.773;1.26;-0.808;0.428;-0.486;0.005;6.8;-14.7;28.0;58.37;4807;2018-04-16 23:27:39:795
-0.399;-7.537;-4.181;-1.84;-9.074;-3.232;1.303;1.031;-1.362;0.55;-0.406;-0.002;7.0;-14.9;27.8;58.37;4817;2018-04-16 23:27:39:805
-0.705;-9.639;-5.107;-1.84;-9.074;-3.232;1.303;1.031;-1.362;0.522;-0.411;-0.094;7.0;-14.9;27.8;58.37;4827;2018-04-16 23:27:39:815
-0.705;-9.639;-5.107;-1.837;-9.108;-3.138;1.062;-1.354;-2.243;0.389;-0.323;-0.182;7.1;-15.0;27.7;58.37;4837;2018-04-16 23:27:39:825
-1.238;-14.696;-7.614;-1.837;-9.108;-3.138;1.062;-1.354;-2.243;0.158;-0.156;-0.259;7.1;-15.0;27.7;58.37;4848;2018-04-16 23:27:39:836
-1.238;-14.696;-7.614;-1.837;-9.108;-3.138;1.062;-1.354;-2.243;0.158;-0.156;-0.259;7.1;-15.0;27.7;58.37;4858;2018-04-16 23:27:39:846
-1.749;-16.818;-8.005;-1.792;-9.116;-3.141;0.043;-7.702;-4.864;-0.182;0.007;-0.28;7.2;-15.0;27.5;58.37;4868;2018-04-16 23:27:39:856
-1.749;-16.818;-8.005;-1.792;-9.116;-3.141;0.043;-7.702;-4.864;-0.182;0.007;-0.28;7.2;-15.0;27.5;58.37;4877;2018-04-16 23:27:39:865
-3.986;-11.667;-4.676;-1.787;-9.09;-3.216;-2.2;-2.577;-1.46;-0.461;-0.26;0.032;7.3;-14.9;27.5;58.37;4888;2018-04-16 23:27:39:876
-2.81;-6.657;-1.35;-1.811;-9.078;-3.237;-0.999;2.421;1.887;-0.375;-0.629;0.067;7.3;-14.9;27.4;58.37;4897;2018-04-16 23:27:39:885
-2.81;-6.657;-1.35;-1.811;-9.078;-3.237;-0.999;2.421;1.887;-0.375;-0.629;0.067;7.3;-14.9;27.4;58.37;4908;2018-04-16 23:27:39:896
-0.789;-2.562;4.041;-1.794;-9.096;-3.196;1.005;6.534;7.238;0.326;-0.597;-0.555;7.5;-14.8;27.4;58.37;4921;2018-04-16 23:27:39:909
-0.789;-2.562;4.041;-1.794;-9.096;-3.196;1.005;6.534;7.238;0.326;-0.597;-0.555;7.5;-14.8;27.4;58.37;4928;2018-04-16 23:27:39:916
-6.001;-6.076;-1.47;-1.444;-9.264;-2.875;-5.9;1.787;-1.024;1.451;0.97;-1.155;7.7;-14.6;27.4;53.8;4938;2018-04-16 23:27:39:926
-8.507;-10.178;-3.232;-1.444;-9.264;-2.875;-5.9;1.787;-1.024;1.565;0.739;-0.981;7.7;-14.6;27.4;53.8;4948;2018-04-16 23:27:39:936
-8.507;-10.178;-3.232;-1.444;-9.264;-2.875;-5.9;1.787;-1.024;1.598;-0.086;-0.523;7.7;-14.6;27.4;53.8;4957;2018-04-16 23:27:39:945
-6.829;-11.801;1.298;-1.378;-9.365;-2.561;-5.452;-2.436;3.859;1.775;-0.238;-0.001;7.8;-14.4;27.3;53.8;4968;2018-04-16 23:27:39:956
-4.114;-12.434;2.72;-1.405;-9.45;-2.211;-1.757;-3.038;4.897;1.935;0.191;0.244;8.0;-14.1;27.2;53.8;4977;2018-04-16 23:27:39:965
-2.685;-11.946;2.538;-1.405;-9.45;-2.211;-1.757;-3.038;4.897;1.918;0.635;0.257;8.0;-14.1;27.2;53.8;4987;2018-04-16 23:27:39:975
-2.685;-11.946;2.538;-1.405;-9.45;-2.211;-1.757;-3.038;4.897;1.69;0.937;0.089;8.0;-14.1;27.2;53.8;4998;2018-04-16 23:27:39:986
-2.898;-11.206;2.373;-1.373;-9.512;-1.951;-1.525;-1.694;4.324;1.69;0.937;0.089;8.1;-13.7;27.0;53.8;5008;2018-04-16 23:27:39:996
-2.898;-11.206;2.373;-1.373;-9.512;-1.951;-1.525;-1.694;4.324;1.035;1.505;0.323;8.1;-13.7;27.0;53.8;5017;2018-04-16 23:27:40:005
-1.917;-9.295;1.232;-1.385;-9.544;-1.777;-0.532;0.249;3.009;0.88;1.447;0.496;8.2;-13.4;27.1;53.8;5028;2018-04-16 23:27:40:016
-1.888;-9.409;-0.821;-1.385;-9.544;-1.777;-0.532;0.249;3.009;0.694;1.286;0.663;8.2;-13.4;27.1;53.8;5037;2018-04-16 23:27:40:025
-1.483;-10.603;-2.538;-1.479;-9.549;-1.675;-0.272;-0.29;-0.218;0.263;0.947;0.964;8.3;-13.0;27.1;53.8;5047;2018-04-16 23:27:40:035
-1.483;-10.603;-2.538;-1.645;-9.522;-1.672;0.218;-2.12;-0.651;0.043;0.53;1.097;8.3;-12.5;27.0;53.8;5058;2018-04-16 23:27:40:046
-1.423;-12.016;-2.156;-1.645;-9.522;-1.672;0.218;-2.12;-0.651;0.043;0.53;1.097;8.3;-12.5;27.0;53.8;5068;2018-04-16 23:27:40:056
-1.453;-11.983;-1.372;-1.86;-9.489;-1.634;0.378;-2.364;0.89;0.119;-0.191;1.122;8.2;-12.0;27.1;53.8;5078;2018-04-16 23:27:40:066
-1.666;-11.655;0.213;-1.86;-9.489;-1.634;0.378;-2.364;0.89;0.618;-0.671;0.809;8.2;-12.0;27.1;53.8;5087;2018-04-16 23:27:40:075
-1.666;-11.679;0.632;-2.01;-9.488;-1.455;0.422;-2.191;2.087;0.948;-0.683;0.569;8.0;-11.5;27.0;53.8;5098;2018-04-16 23:27:40:086
-1.589;-11.679;0.632;-2.01;-9.488;-1.455;0.422;-2.191;2.087;0.948;-0.683;0.569;8.0;-11.5;27.0;53.8;5107;2018-04-16 23:27:40:095
-1.29;-11.122;-0.151;-2.097;-9.505;-1.191;0.806;-1.617;1.04;1.321;-0.489;0.398;7.9;-11.0;27.1;53.8;5118;2018-04-16 23:27:40:106
-1.29;-11.122;-0.151;-2.097;-9.505;-1.191;0.806;-1.617;1.04;1.349;-0.271;0.34;7.9;-11.0;27.1;53.8;5127;2018-04-16 23:27:40:115
-1.29;-11.122;-0.151;-2.097;-9.505;-1.191;0.806;-1.617;1.04;1.349;-0.271;0.34;7.9;-11.0;27.1;53.8;5137;2018-04-16 23:27:40:125
-0.439;-8.898;-0.169;-2.149;-9.527;-0.883;1.71;0.629;0.714;0.977;0.517;0.202;7.7;-10.2;27.1;53.8;5148;2018-04-16 23:27:40:136
-0.439;-8.898;-0.169;-2.149;-9.527;-0.883;1.71;0.629;0.714;0.977;0.517;0.202;7.7;-10.2;27.1;53.8;5158;2018-04-16 23:27:40:146
0.12;-8.013;-0.054;-2.188;-9.529;-0.755;2.721;1.831;0.958;0.826;0.764;0.274;7.5;-9.5;27.3;53.8;5170;2018-04-16 23:27:40:158
1.129;-7.877;0.505;-2.188;-9.529;-0.755;2.721;1.831;0.958;0.834;0.805;0.334;7.5;-9.5;27.3;53.8;5178;2018-04-16 23:27:40:166
1.129;-7.877;0.505;-2.232;-9.529;-0.622;4.038;0.982;0.665;0.834;0.805;0.334;7.5;-9.1;27.4;53.8;5188;2018-04-16 23:27:40:176
1.828;-8.788;-0.243;-2.232;-9.529;-0.622;4.038;0.982;0.665;0.98;0.562;0.151;7.5;-9.1;27.4;53.8;5198;2018-04-16 23:27:40:186
1.202;-9.649;-0.836;-2.204;-9.546;-0.436;3.406;-0.103;-0.399;1.03;-0.161;-0.034;7.3;-8.6;27.5;53.8;5208;2018-04-16 23:27:40:196
1.202;-9.649;-0.836;-2.204;-9.546;-0.436;3.406;-0.103;-0.399;1.03;-0.161;-0.034;7.3;-8.6;27.5;53.8;5218;2018-04-16 23:27:40:206
0.935;-9.53;-0.488;-2.198;-9.555;-0.19;3.269;-0.067;-0.622;1.07;-1.5;0.156;7.1;-8.0;27.6;53.8;5228;2018-04-16 23:27:40:216
0.935;-9.53;-0.488;-2.198;-9.555;-0.19;3.269;-0.067;-0.622;1.196;-2.18;0.254;7.1;-8.0;27.6;53.8;5238;2018-04-16 23:27:40:226
0.238;-8.93;-0.318;-2.233;-9.548;0.14;2.471;0.618;-0.459;1.251;-2.337;0.213;7.0;-7.3;27.8;53.8;5248;2018-04-16 23:27:40:236
0.238;-8.93;-0.318;-2.233;-9.548;0.14;2.471;0.618;-0.459;1.251;-2.337;0.213;7.0;-7.3;27.8;61.13;5258;2018-04-16 23:27:40:246
0.238;-8.93;-0.318;-2.233;-9.548;0.14;2.471;0.618;-0.459;1.247;-2.264;0.123;7.0;-7.3;27.8;61.13;5268;2018-04-16 23:27:40:256
-0.707;-8.224;0.166;-2.237;-9.537;0.469;1.53;1.312;-0.302;1.195;-1.958;0.056;6.9;-6.7;27.9;61.13;5277;2018-04-16 23:27:40:265
-0.707;-8.224;0.166;-2.237;-9.537;0.469;1.53;1.312;-0.302;1.095;-1.532;0.024;6.9;-6.7;27.9;61.13;5288;2018-04-16 23:27:40:276
-1.245;-7.904;-0.192;-2.226;-9.523;0.723;0.981;1.619;-0.915;0.852;-0.908;0.016;6.9;-6.3;27.9;61.13;5299;2018-04-16 23:27:40:287
-0.707;-7.253;-0.53;-2.218;-9.517;0.823;1.511;2.264;-1.353;0.755;-0.771;-0.011;7.0;-6.0;28.0;61.13;5307;2018-04-16 23:27:40:295
-0.707;-7.253;-0.53;-2.218;-9.517;0.823;1.511;2.264;-1.353;0.304;-0.411;-0.253;7.0;-6.0;28.0;61.13;5318;2018-04-16 23:27:40:306
-0.281;-8.005;0.409;-2.142;-9.524;0.935;1.723;0.804;-0.104;0.304;-0.411;-0.253;7.1;-5.2;28.0;61.13;5327;2018-04-16 23:27:40:315
-0.631;-9.901;1.444;-2.142;-9.524;0.935;1.723;0.804;-0.104;0.101;-0.015;-0.345;7.1;-5.2;28.0;61.13;5338;2018-04-16 23:27:40:326
-0.631;-9.901;1.444;-2.142;-9.524;0.935;1.723;0.804;-0.104;0.115;0.353;-0.348;7.1;-5.2;28.0;61.13;5347;2018-04-16 23:27:40:335
-0.733;-12.23;2.222;-2.075;-9.537;0.95;1.319;-1.736;1.054;0.705;0.847;-0.409;7.3;-4.7;28.1;61.13;5358;2018-04-16 23:27:40:346
-0.03;-11.206;1.246;-2.014;-9.534;1.102;1.797;-2.13;0.568;1.35;1.058;-0.432;7.5;-4.3;27.9;61.13;5368;2018-04-16 23:27:40:356
-0.03;-11.206;1.246;-2.014;-9.534;1.102;1.797;-2.13;0.568;1.35;1.058;-0.432;7.5;-4.3;27.9;61.13;5378;2018-04-16 23:27:40:366
0.569;-9.71;-0.014;-1.945;-9.511;1.39;2.513;-0.199;-1.405;1.917;1.374;-0.49;7.7;-3.7;28.0;61.13;5388;2018-04-16 23:27:40:376
0.569;-9.71;-0.014;-1.945;-9.511;1.39;2.513;-0.199;-1.405;1.917;1.374;-0.49;7.7;-3.7;28.0;61.13;5398;2018-04-16 23:27:40:386
0.226;-8.793;-1.079;-1.853;-9.474;1.723;2.606;0.622;-2.352;2.089;1.147;-0.754;7.8;-3.2;28.0;61.13;5408;2018-04-16 23:27:40:396
0.226;-8.793;-1.079;-1.853;-9.474;1.723;2.606;0.622;-2.352;2.089;1.147;-0.754;7.8;-3.2;28.0;61.13;5418;2018-04-16 23:27:40:406
-0.862;-9.446;-1.75;-1.773;-9.451;1.926;0.911;0.005;-3.676;2.293;0.804;-0.903;7.9;-2.8;27.9;61.13;5428;2018-04-16 23:27:40:416
-3.675;-12.072;-4.5;-1.616;-9.37;2.4;-2.059;-2.702;-6.9;2.61;0.198;-0.849;7.7;-1.9;27.7;61.13;5437;2018-04-16 23:27:40:425
-3.675;-12.072;-4.5;-1.616;-9.37;2.4;-2.059;-2.702;-6.9;2.431;0.21;-0.701;7.7;-1.9;27.7;61.13;5448;2018-04-16 23:27:40:436
-3.675;-12.072;-4.5;-1.616;-9.37;2.4;-2.059;-2.702;-6.9;2.431;0.21;-0.701;7.7;-1.9;27.7;61.13;5458;2018-04-16 23:27:40:446
-4.606;-12.61;-10.704;-1.524;-9.286;2.759;-3.083;-3.324;-13.464;1.657;0.574;-0.549;7.7;0.0;27.6;61.13;5467;2018-04-16 23:27:40:455
-3.577;-11.863;-5.556;-1.562;-9.322;2.612;-1.319;-2.92;-5.885;-0.509;1.648;-0.271;7.1;1.7;26.9;61.13;5478;2018-04-16 23:27:40:466
-1.708;-13.331;-0.864;-1.562;-9.322;2.612;-1.319;-2.92;-5.885;-1.935;2.313;-0.055;7.1;1.7;26.9;61.13;5488;2018-04-16 23:27:40:476
-1.708;-13.331;-0.864;-1.562;-9.322;2.612;-1.319;-2.92;-5.885;-1.935;2.313;-0.055;7.1;1.7;26.9;61.13;5498;2018-04-16 23:27:40:486
1.53;-14.307;0.514;-1.682;-9.423;2.131;0.992;-4.761;-1.909;-2.016;1.921;0.228;6.9;1.8;27.3;61.13;5508;2018-04-16 23:27:40:496
1.53;-14.307;0.514;-1.682;-9.423;2.131;0.992;-4.761;-1.909;-2.016;1.921;0.228;6.9;1.8;27.3;61.13;5518;2018-04-16 23:27:40:506
1.991;-13.757;0.729;-1.77;-9.486;1.745;3.585;-4.547;-1.013;-1.497;0.964;0.126;6.2;1.8;27.4;61.13;5528;2018-04-16 23:27:40:516
1.991;-13.757;0.729;-1.77;-9.486;1.745;3.585;-4.547;-1.013;-1.497;0.964;0.126;6.2;1.8;27.4;61.13;5538;2018-04-16 23:27:40:526
1.475;-12.321;1.391;-1.746;-9.527;1.536;3.221;-2.794;-0.145;-1.074;-0.247;-0.188;5.8;1.9;26.9;61.13;5547;2018-04-16 23:27:40:535
1.475;-12.321;1.391;-1.746;-9.527;1.536;3.221;-2.794;-0.145;-1.074;-0.247;-0.188;5.8;1.9;26.9;61.13;5558;2018-04-16 23:27:40:546
-0.138;-10.317;0.65;-1.681;-9.564;1.371;1.544;-0.753;-0.721;-0.914;-0.693;-0.222;5.7;1.7;27.3;61.13;5568;2018-04-16 23:27:40:556
-0.138;-10.317;0.65;-1.681;-9.564;1.371;1.544;-0.753;-0.721;-0.663;-1.283;-0.258;5.7;1.7;27.3;53.38;5578;2018-04-16 23:27:40:566
-3.239;-10.696;-3.638;-1.597;-9.591;1.281;-1.642;-1.106;-4.919;-0.535;-1.873;-0.241;5.7;2.2;27.8;53.38;5588;2018-04-16 23:27:40:576
-3.239;-10.696;-3.638;-1.597;-9.591;1.281;-1.642;-1.106;-4.919;-0.535;-1.873;-0.241;5.7;2.2;27.8;53.38;5597;2018-04-16 23:27:40:585
-5.869;-11.824;-7.937;-1.531;-9.614;1.179;-4.338;-2.209;-9.116;-1.152;-2.441;0.065;5.5;2.1;27.6;53.38;5608;2018-04-16 23:27:40:596
-5.869;-11.685;-2.82;-1.531;-9.614;1.179;-4.338;-2.209;-9.116;-2.651;-2.15;0.518;5.7;2.3;27.2;53.38;5617;2018-04-16 23:27:40:605
-3.904;-11.685;-2.82;-1.588;-9.65;0.73;-2.316;-2.035;-3.55;-3.604;-1.014;0.605;5.7;2.3;27.2;53.38;5628;2018-04-16 23:27:40:616
-1.116;-11.718;4.906;-1.588;-9.65;0.73;-2.316;-2.035;-3.55;-3.604;-1.014;0.605;5.7;2.3;27.2;53.38;5638;2018-04-16 23:27:40:626
-1.116;-11.718;4.906;-1.686;-9.661;0.033;0.628;-2.163;5.53;-3.784;-0.125;0.489;5.6;2.2;26.9;53.38;5647;2018-04-16 23:27:40:635
-1.301;-12.354;6.128;-1.714;-9.651;-0.302;0.413;-2.703;6.43;-3.699;0.707;0.331;5.6;2.1;27.2;53.38;5657;2018-04-16 23:27:40:645
-1.301;-12.354;6.128;-1.714;-9.651;-0.302;0.413;-2.703;6.43;-3.699;0.707;0.331;5.6;2.1;27.2;53.38;5668;2018-04-16 23:27:40:656
-1.985;-12.884;4.998;-1.724;-9.603;-0.987;-0.26;-3.281;5.985;-3.092;1.845;0.121;5.3;2.3;27.1;53.38;5678;2018-04-16 23:27:40:666
-2.959;-12.227;3.297;-1.678;-9.532;-1.581;-1.281;-2.695;4.878;-2.593;2.49;0.065;4.8;1.0;27.6;53.38;5688;2018-04-16 23:27:40:676
-2.959;-12.227;3.297;-1.678;-9.532;-1.581;-1.281;-2.695;4.878;-2.593;2.49;0.065;4.8;1.0;27.6;53.38;5698;2018-04-16 23:27:40:686
-2.959;-12.227;3.297;-1.678;-9.532;-1.581;-1.281;-2.695;4.878;-2.469;2.748;0.056;4.8;1.0;27.6;53.38;5708;2018-04-16 23:27:40:696
-3.552;-11.833;2.999;-1.585;-9.442;-2.123;-1.7;-2.533;5.379;-2.275;2.803;0.049;3.8;-1.2;28.3;53.38;5717;2018-04-16 23:27:40:705
-3.279;-10.364;-0.856;-1.489;-9.346;-2.57;-1.789;-1.019;1.714;-1.881;2.507;0.175;3.0;-2.9;28.2;53.38;5728;2018-04-16 23:27:40:716
-3.279;-10.364;-0.856;-1.489;-9.346;-2.57;-1.789;-1.019;1.714;-1.881;2.507;0.175;3.0;-2.9;28.2;53.38;5737;2018-04-16 23:27:40:725
-2.978;-10.333;-3.584;-1.467;-9.3;-2.742;-1.512;-1.033;-0.842;-1.434;1.561;0.222;2.0;-3.6;28.1;53.38;5748;2018-04-16 23:27:40:736
-1.887;-8.976;-2.623;-1.561;-9.261;-2.824;-0.325;0.285;0.201;-0.514;-0.599;0.345;0.9;-5.1;29.0;53.38;5758;2018-04-16 23:27:40:746
-1.427;-8.164;-1.123;-1.561;-9.261;-2.824;-0.325;0.285;0.201;-0.116;-1.44;0.186;0.9;-5.1;29.0;53.38;5768;2018-04-16 23:27:40:756
-1.427;-8.164;-1.123;-1.561;-9.261;-2.824;-0.325;0.285;0.201;-0.116;-1.44;0.186;0.9;-5.1;29.0;53.38;5779;2018-04-16 23:27:40:767
-0.997;-8.15;-0.456;-1.659;-9.252;-2.797;0.662;1.102;2.341;-0.082;-1.313;0.056;1.0;-5.9;28.9;53.38;5787;2018-04-16 23:27:40:775
-0.655;-8.27;-0.192;-1.671;-9.249;-2.797;1.016;0.98;2.606;-0.136;-0.764;-0.083;0.9;-6.6;27.7;53.38;5797;2018-04-16 23:27:40:785
-0.655;-8.27;-0.192;-1.671;-9.249;-2.797;1.016;0.98;2.606;-0.319;1.096;-0.454;0.9;-6.6;27.7;53.38;5808;2018-04-16 23:27:40:796
-0.705;-8.055;1.408;-1.458;-9.246;-2.924;0.422;1.308;4.003;-0.208;1.597;-0.534;1.3;-6.5;29.2;53.38;5817;2018-04-16 23:27:40:805
-0.601;-7.628;0.444;-1.458;-9.246;-2.924;0.422;1.308;4.003;-0.208;1.597;-0.534;1.3;-6.5;29.2;53.38;5827;2018-04-16 23:27:40:815
-0.791;-7.269;0.431;-1.269;-9.269;-2.941;0.478;2.0;3.372;-0.043;1.63;-0.556;0.1;-6.5;27.8;53.38;5838;2018-04-16 23:27:40:826
-0.791;-7.269;0.431;-1.269;-9.269;-2.941;0.478;2.0;3.372;0.401;0.147;-0.607;0.1;-6.5;27.8;53.38;5847;2018-04-16 23:27:40:835
-3.633;-6.791;-1.352;-1.218;-9.291;-2.891;-2.787;3.088;2.662;0.046;-0.938;-0.259;-0.1;-6.7;27.2;53.38;5858;2018-04-16 23:27:40:846
-3.864;-5.119;2.284;-1.218;-9.291;-2.891;-2.787;3.088;2.662;0.046;-0.938;-0.259;-0.1;-6.7;27.2;53.38;5867;2018-04-16 23:27:40:855
-3.864;-5.119;2.284;-1.344;-9.244;-2.986;-2.061;5.079;7.061;-0.682;-1.272;0.327;0.3;-6.1;27.0;53.38;5877;2018-04-16 23:27:40:865
-3.136;-3.442;4.551;-1.344;-9.244;-2.986;-2.061;5.079;7.061;-1.079;-0.11;0.462;0.3;-6.1;27.0;53.38;5887;2018-04-16 23:27:40:875
-3.102;-3.079;3.482;-1.398;-9.166;-3.193;-1.704;6.087;6.676;-1.073;0.616;0.319;0.1;-7.4;28.1;53.38;5897;2018-04-16 23:27:40:885
-3.102;-3.079;3.482;-1.398;-9.166;-3.193;-1.704;6.087;6.676;-1.073;0.616;0.319;0.1;-7.4;28.1;53.38;5908;2018-04-16 23:27:40:896
-3.642;-2.813;1.12;-1.368;-9.127;-3.315;-2.427;6.36;3.905;-0.628;0.705;0.054;0.3;-7.3;27.9;54.85;5918;2018-04-16 23:27:40:906
-3.57;-2.683;-0.113;-1.368;-9.127;-3.315;-2.427;6.36;3.905;0.172;0.012;-0.027;0.3;-7.3;27.9;54.85;5928;2018-04-16 23:27:40:916
-3.57;-2.683;-0.113;-1.385;-9.157;-3.224;-1.548;6.642;2.313;0.704;-0.439;0.033;0.3;-7.6;27.8;54.85;5937;2018-04-16 23:27:40:925
-1.665;-2.474;-1.599;-1.385;-9.157;-3.224;-1.548;6.642;2.313;0.704;-0.439;0.033;0.3;-7.6;27.8;54.85;5948;2018-04-16 23:27:40:936
-1.665;-2.474;-1.599;-1.468;-9.228;-2.975;1.407;6.408;0.792;1.234;-0.826;0.18;0.3;-7.6;27.9;54.85;5957;2018-04-16 23:27:40:945
1.172;-4.069;-3.106;-1.468;-9.228;-2.975;1.407;6.408;0.792;1.53;-1.084;0.147;0.3;-7.6;27.9;54.85;5967;2018-04-16 23:27:40:955
1.172;-4.069;-3.106;-1.468;-9.228;-2.975;1.407;6.408;0.792;1.53;-1.084;0.147;0.3;-7.6;27.9;54.85;5978;2018-04-16 23:27:40:966
1.305;-6.874;-4.214;-1.554;-9.315;-2.643;2.859;2.441;-1.571;1.631;-1.406;0.032;0.0;-7.9;28.0;54.85;5987;2018-04-16 23:27:40:975
-0.231;-14.344;-6.157;-1.554;-9.315;-2.643;2.859;2.441;-1.571;1.505;-1.987;0.043;0.0;-7.9;28.0;54.85;5998;2018-04-16 23:27:40:986
-0.231;-14.344;-6.157;-1.668;-9.384;-2.307;1.623;-7.419;-6.007;1.096;-2.11;0.412;-0.2;-8.1;27.9;54.85;6007;2018-04-16 23:27:40:995
4.192;-18.383;-15.672;-1.903;-9.372;-2.173;8.063;-8.811;-15.291;-0.061;-2.133;0.82;-0.2;-8.1;27.9;54.85;6018;2018-04-16 23:27:41:006
6.494;-16.628;-13.874;-1.903;-9.372;-2.173;8.063;-8.811;-15.291;-1.245;-1.895;0.093;-0.2;-8.1;27.9;54.85;6029;2018-04-16 23:27:41:017
6.494;-16.628;-13.874;-1.991;-9.315;-2.329;5.69;-5.579;-7.221;-1.245;-1.895;0.093;-0.1;-8.1;27.8;54.85;6038;2018-04-16 23:27:41:026
2.753;-13.913;-8.558;-1.991;-9.315;-2.329;5.69;-5.579;-7.221;-1.431;-0.574;-0.42;-0.1;-8.1;27.8;54.85;6047;2018-04-16 23:27:41:035
1.19;-12.146;-8.137;-1.822;-9.287;-2.571;3.012;-2.859;-5.566;-0.886;1.641;-0.718;0.1;-8.0;27.7;54.85;6058;2018-04-16 23:27:41:046
1.19;-12.146;-8.137;-1.822;-9.287;-2.571;3.012;-2.859;-5.566;-0.886;1.641;-0.718;0.1;-8.0;27.7;54.85;6068;2018-04-16 23:27:41:056
-2.695;-15.672;-8.672;-1.585;-9.336;-2.551;-3.163;-8.36;-5.433;0.214;1.944;-0.922;0.2;-7.9;27.7;54.85;6078;2018-04-16 23:27:41:066
-6.117;-18.596;-6.888;-1.585;-9.336;-2.551;-3.163;-8.36;-5.433;0.86;1.008;-0.826;0.2;-7.9;27.7;54.85;6088;2018-04-16 23:27:41:076
-6.117;-18.596;-6.888;-1.585;-9.336;-2.551;-7.399;-8.324;2.842;1.167;-0.029;-0.604;0.3;-7.8;27.8;54.85;6098;2018-04-16 23:27:41:086
-8.9;-17.725;0.492;-1.502;-9.402;-2.35;-7.399;-8.324;2.842;0.122;0.326;-0.312;0.3;-7.8;27.8;54.85;6109;2018-04-16 23:27:41:097
-6.765;-14.557;-3.528;-1.502;-9.402;-2.35;-7.399;-8.324;2.842;0.122;0.326;-0.312;0.3;-7.8;27.8;54.85;6118;2018-04-16 23:27:41:106
-6.765;-14.557;-3.528;-1.413;-9.394;-2.434;-3.961;-2.794;1.786;-0.799;0.461;-0.442;0.3;-7.6;27.7;54.85;6127;2018-04-16 23:27:41:115
-2.743;-3.51;6.206;-1.216;-9.35;-2.694;-0.958;7.896;9.289;-1.217;1.218;-0.863;0.3;-7.4;27.7;54.85;6138;2018-04-16 23:27:41:126
-1.711;0.18;5.971;-1.216;-9.35;-2.694;-0.958;7.896;9.289;-1.217;1.218;-0.863;0.3;-7.4;27.7;54.85;6148;2018-04-16 23:27:41:136
-1.711;0.18;5.971;-1.216;-9.35;-2.694;-0.958;7.896;9.289;-0.616;1.753;-1.075;0.3;-7.4;27.7;54.85;6158;2018-04-16 23:27:41:146
-1.323;0.721;3.023;-0.917;-9.339;-2.847;-0.554;9.84;7.751;-0.616;1.753;-1.075;0.4;-7.3;27.8;54.85;6168;2018-04-16 23:27:41:156
-1.829;-0.241;2.046;-0.778;-9.343;-2.876;-1.051;9.103;4.922;-0.191;1.852;-1.134;0.4;-7.2;27.9;54.85;6177;2018-04-16 23:27:41:165
-5.313;-5.719;1.599;-0.517;-9.362;-2.873;-4.795;3.643;4.472;0.296;1.899;-0.589;0.3;-7.2;28.0;54.85;6188;2018-04-16 23:27:41:176
-5.313;-5.719;1.599;-0.517;-9.362;-2.873;-4.795;3.643;4.472;0.296;1.899;-0.589;0.3;-7.2;28.0;54.85;6198;2018-04-16 23:27:41:186
-8.085;-10.025;1.437;-0.478;-9.379;-2.825;-7.607;-0.646;4.262;0.561;1.824;0.167;0.2;-7.2;27.9;54.85;6207;2018-04-16 23:27:41:195
-7.505;-16.679;0.061;-0.478;-9.379;-2.825;-7.607;-0.646;4.262;0.682;1.647;1.649;0.2;-7.2;27.9;54.85;6217;2018-04-16 23:27:41:205
-7.505;-16.679;0.061;-0.688;-9.395;-2.727;-6.817;-7.285;2.788;0.053;1.412;1.815;0.0;-7.0;27.9;54.85;6228;2018-04-16 23:27:41:216
-5.753;-16.531;0.096;-0.688;-9.395;-2.727;-6.817;-7.285;2.788;-0.397;1.139;1.2;0.0;-7.0;27.8;65.68;6238;2018-04-16 23:27:41:226
-4.687;-12.435;0.778;-0.897;-9.361;-2.782;-4.065;-5.536;3.074;-0.397;1.139;1.2;-0.1;-6.8;27.8;65.68;6248;2018-04-16 23:27:41:236
-4.687;-12.435;0.778;-1.011;-9.323;-2.87;-2.558;-0.574;3.501;-0.469;0.364;0.655;-0.3;-6.5;27.8;65.68;6257;2018-04-16 23:27:41:245
-2.441;-7.861;0.085;-1.011;-9.323;-2.87;-2.558;-0.574;3.501;-0.232;-0.281;0.858;-0.3;-6.5;27.8;65.68;6268;2018-04-16 23:27:41:256
-2.441;-7.861;0.085;-1.011;-9.323;-2.87;-2.558;-0.574;3.501;-0.232;-0.281;0.858;-0.3;-6.5;27.8;65.68;6277;2018-04-16 23:27:41:265
-1.775;-6.838;-0.409;-1.208;-9.293;-2.89;-0.568;2.455;2.481;-0.115;-0.645;0.946;-0.7;-6.3;27.6;65.68;6287;2018-04-16 23:27:41:275
-1.208;-6.742;-1.265;-1.317;-9.281;-2.879;0.109;2.539;1.614;-0.01;-1.016;0.982;-1.1;-6.3;27.6;65.68;6298;2018-04-16 23:27:41:286
0.048;-9.114;-0.979;-1.627;-9.296;-2.664;1.675;0.183;1.685;1.18;-3.008;0.96;-1.6;-6.2;27.1;65.68;6308;2018-04-16 23:27:41:296
0.048;-9.114;-0.979;-1.627;-9.296;-2.664;1.675;0.183;1.685;1.18;-3.008;0.96;-1.6;-6.2;27.1;65.68;6318;2018-04-16 23:27:41:306
-0.038;-10.52;-0.31;-1.798;-9.332;-2.417;1.76;-1.188;2.107;1.717;-3.813;0.667;-1.6;-6.0;27.4;65.68;6328;2018-04-16 23:27:41:316
-1.088;-11.964;0.651;-2.024;-9.404;-1.909;0.818;-2.464;2.813;1.888;-4.068;0.23;-1.6;-5.9;27.4;65.68;6338;2018-04-16 23:27:41:326
-0.328;-10.967;1.514;-2.024;-9.404;-1.909;0.818;-2.464;2.813;1.895;-3.738;0.421;-1.6;-5.9;27.4;65.68;6348;2018-04-16 23:27:41:336
-0.328;-10.967;1.514;-2.024;-9.404;-1.909;0.818;-2.464;2.813;1.895;-3.738;0.421;-1.6;-5.9;27.4;65.68;6358;2018-04-16 23:27:41:346
1.046;-9.924;1.575;-2.231;-9.451;-1.366;2.391;-1.129;2.995;2.23;-3.14;0.685;-2.0;-5.8;27.3;65.68;6368;2018-04-16 23:27:41:356
2.502;-8.404;0.983;-2.343;-9.491;-0.775;4.845;1.087;1.758;2.481;-2.617;0.596;-2.0;-5.5;27.2;65.68;6378;2018-04-16 23:27:41:366
2.502;-8.404;0.983;-2.343;-9.491;-0.775;4.845;1.087;1.758;2.536;-1.3;0.033;-2.0;-5.5;27.2;65.68;6388;2018-04-16 23:27:41:376
2.502;-8.404;0.983;-2.343;-9.491;-0.775;4.845;1.087;1.758;2.536;-1.3;0.033;-2.0;-5.5;27.2;65.68;6398;2018-04-16 23:27:41:386
1.948;-7.901;0.526;-2.338;-9.52;-0.264;4.286;1.619;0.79;2.409;-0.555;-0.162;-0.7;-4.0;26.7;65.68;6407;2018-04-16 23:27:41:395
0.989;-8.42;-0.304;-2.28;-9.537;0.104;3.514;1.27;-0.122;2.087;0.55;-0.305;0.4;-2.2;26.3;65.68;6417;2018-04-16 23:27:41:405
0.989;-8.42;-0.304;-2.28;-9.537;0.104;3.514;1.27;-0.122;1.646;1.271;-0.357;0.4;-2.2;26.3;65.68;6427;2018-04-16 23:27:41:415
0.575;-8.635;-0.922;-2.216;-9.547;0.327;2.608;0.906;-1.527;1.349;1.348;-0.373;0.4;-1.2;26.7;65.68;6438;2018-04-16 23:27:41:426
0.254;-8.592;-1.267;-2.216;-9.547;0.327;2.608;0.906;-1.527;0.969;1.095;-0.323;0.4;-1.2;26.7;65.68;6447;2018-04-16 23:27:41:435
0.254;-8.592;-1.267;-2.216;-9.547;0.327;2.608;0.906;-1.527;0.969;1.095;-0.323;0.4;-1.2;26.7;65.68;6457;2018-04-16 23:27:41:445
-0.061;-8.352;-0.934;-2.163;-9.554;0.465;2.102;1.202;-1.399;0.836;0.894;-0.281;0.3;0.2;26.7;65.68;6468;2018-04-16 23:27:41:456
-0.363;-8.424;0.017;-2.163;-9.554;0.465;2.102;1.202;-1.399;1.252;0.624;-0.407;0.3;0.2;26.7;65.68;6477;2018-04-16 23:27:41:465
-1.188;-9.572;0.236;-2.101;-9.557;0.639;1.369;0.725;-0.445;1.252;0.624;-0.407;0.5;1.2;26.5;65.68;6488;2018-04-16 23:27:41:476
-1.188;-9.572;0.236;-2.101;-9.557;0.639;1.369;0.725;-0.445;2.364;0.292;-0.579;0.5;1.2;26.5;65.68;6497;2018-04-16 23:27:41:485
-1.956;-11.977;-0.244;-1.997;-9.54;1.08;0.072;-1.717;-1.077;2.364;0.292;-0.579;0.4;1.7;26.5;65.68;6508;2018-04-16 23:27:41:496
-1.956;-11.977;-0.244;-1.997;-9.54;1.08;0.072;-1.717;-1.077;2.732;0.337;-0.506;0.4;1.7;26.5;65.68;6518;2018-04-16 23:27:41:506
-1.537;-11.496;-0.862;-1.92;-9.493;1.539;0.383;-2.003;-2.401;2.409;0.701;-0.467;0.0;2.8;26.4;65.68;6527;2018-04-16 23:27:41:515
-1.537;-11.496;-0.862;-1.92;-9.493;1.539;0.383;-2.003;-2.401;1.982;1.168;-0.481;0.0;2.8;26.4;65.68;6537;2018-04-16 23:27:41:525
-1.851;-10.036;-2.324;-1.873;-9.449;1.837;0.023;-0.587;-4.161;1.762;1.528;-0.509;0.2;5.2;25.1;65.68;6548;2018-04-16 23:27:41:536
-1.383;-9.893;-5.914;-1.873;-9.449;1.837;0.023;-0.587;-4.161;1.743;1.663;-0.485;0.2;5.2;25.1;60.27;6558;2018-04-16 23:27:41:546
-0.686;-9.918;-8.596;-1.846;-9.4;2.097;0.86;-0.469;-9.693;1.202;1.494;-0.475;-0.7;5.8;24.8;60.27;6568;2018-04-16 23:27:41:556
-0.686;-9.918;-8.596;-1.846;-9.4;2.097;0.86;-0.469;-9.693;1.202;1.494;-0.475;-0.7;5.8;24.8;60.27;6577;2018-04-16 23:27:41:565
-0.585;-10.981;-3.378;-1.819;-9.387;2.18;1.126;-0.837;-8.632;-0.519;1.315;-0.424;-1.2;6.7;24.9;60.27;6588;2018-04-16 23:27:41:576
-0.585;-10.981;-3.378;-1.803;-9.433;1.986;1.442;-1.632;-4.369;-0.519;1.315;-0.424;-1.6;6.7;26.0;60.27;6598;2018-04-16 23:27:41:586
0.305;-10.712;-0.448;-1.803;-9.433;1.986;1.442;-1.632;-4.369;-1.142;1.037;-0.253;-1.6;6.7;26.0;60.27;6608;2018-04-16 23:27:41:596
-0.043;-10.988;1.241;-1.786;-9.482;1.75;1.743;-1.506;-0.509;-1.042;0.64;-0.242;-1.9;6.1;25.6;60.27;6618;2018-04-16 23:27:41:606
-0.043;-10.988;1.241;-1.786;-9.482;1.75;1.743;-1.506;-0.509;-0.765;0.443;-0.225;-1.9;6.1;25.6;60.27;6627;2018-04-16 23:27:41:615
-0.114;-11.455;1.516;-1.756;-9.509;1.633;1.642;-1.946;-0.118;-0.765;0.443;-0.225;-2.0;6.2;24.2;60.27;6637;2018-04-16 23:27:41:625
-0.114;-11.981;1.275;-1.742;-9.515;1.611;1.628;-1.94;-0.096;-0.253;0.02;-0.167;-2.0;6.2;24.2;60.27;6648;2018-04-16 23:27:41:636
0.066;-11.981;1.275;-1.742;-9.515;1.611;1.628;-1.94;-0.096;-0.253;0.02;-0.167;-2.1;6.5;24.6;60.27;6658;2018-04-16 23:27:41:646
0.066;-11.981;1.275;-1.742;-9.515;1.611;1.628;-1.94;-0.096;-0.253;0.02;-0.167;-2.1;6.5;24.6;60.27;6668;2018-04-16 23:27:41:656
-0.205;-12.27;-0.045;-1.693;-9.526;1.599;1.488;-2.744;-1.645;-0.062;-0.502;-0.204;-2.1;6.5;24.6;60.27;6678;2018-04-16 23:27:41:666
-0.205;-13.357;-1.529;-1.627;-9.53;1.642;1.697;-3.827;-3.17;0.054;-0.823;-0.187;-2.0;6.6;24.3;60.27;6688;2018-04-16 23:27:41:676
0.069;-13.357;-1.529;-1.627;-9.53;1.642;1.697;-3.827;-3.17;0.023;-1.174;-0.182;-2.0;6.6;24.3;60.27;6698;2018-04-16 23:27:41:686
-0.005;-13.979;-3.201;-1.584;-9.535;1.656;1.579;-4.443;-4.857;0.023;-1.174;-0.182;-1.7;6.9;25.4;60.27;6708;2018-04-16 23:27:41:696
-0.005;-13.979;-3.201;-1.584;-9.535;1.656;1.579;-4.443;-4.857;-0.429;-1.216;-0.215;-1.7;6.9;25.4;60.27;6718;2018-04-16 23:27:41:706
-1.496;-12.681;-6.327;-1.505;-9.566;1.546;0.009;-3.115;-7.872;-1.027;-1.026;-0.246;-1.4;7.1;24.9;60.27;6728;2018-04-16 23:27:41:716
-3.184;-11.559;-4.928;-1.505;-9.566;1.546;0.009;-3.115;-7.872;-2.167;-0.685;-0.181;-1.4;7.1;24.9;60.27;6738;2018-04-16 23:27:41:726
-2.97;-10.149;-1.95;-1.454;-9.63;1.145;-1.923;-1.256;-4.81;-3.035;-0.721;0.033;-1.5;7.1;25.0;60.27;6748;2018-04-16 23:27:41:736
-2.97;-10.149;-1.95;-1.454;-9.63;1.145;-1.923;-1.256;-4.81;-3.035;-0.721;0.033;-1.5;7.1;25.0;60.27;6758;2018-04-16 23:27:41:746
-2.258;-9.744;-0.612;-1.459;-9.682;0.542;-0.798;-0.062;-1.154;-3.393;-0.903;0.115;-1.8;7.3;25.1;60.27;6768;2018-04-16 23:27:41:756
-1.566;-10.08;1.573;-1.459;-9.682;0.542;-0.798;-0.062;-1.154;-3.587;-1.107;0.101;-1.8;7.3;25.1;60.27;6778;2018-04-16 23:27:41:766
-1.566;-10.08;1.573;-1.466;-9.696;-0.12;-0.274;-1.123;2.427;-3.64;-1.202;0.028;-2.1;7.5;25.1;60.27;6788;2018-04-16 23:27:41:776
-2.065;-12.398;3.566;-1.47;-9.664;-0.786;-1.006;-3.435;5.121;-3.55;-0.772;-0.032;-2.3;7.5;25.1;60.27;6798;2018-04-16 23:27:41:786
-2.721;-13.803;5.702;-1.47;-9.664;-0.786;-1.006;-3.435;5.121;-3.55;-0.772;-0.032;-2.3;7.5;25.1;60.27;6807;2018-04-16 23:27:41:795
-2.721;-14.465;6.827;-1.461;-9.592;-1.426;-1.814;-4.873;8.253;-3.18;0.566;-0.013;-2.5;7.2;25.2;60.27;6818;2018-04-16 23:27:41:806
-3.275;-14.465;6.827;-1.461;-9.592;-1.426;-1.814;-4.873;8.253;-3.18;0.566;-0.013;-2.5;7.2;25.2;60.27;6827;2018-04-16 23:27:41:815
-3.722;-14.371;5.868;-1.393;-9.499;-1.999;-2.329;-4.872;7.868;-2.706;2.095;0.029;-2.7;5.3;26.0;60.27;6838;2018-04-16 23:27:41:826
-3.722;-14.371;5.868;-1.393;-9.499;-1.999;-2.329;-4.872;7.868;-2.396;3.014;0.054;-2.7;5.3;26.0;60.27;6847;2018-04-16 23:27:41:835
-3.722;-14.371;5.868;-1.393;-9.499;-1.999;-2.329;-4.872;7.868;-2.396;3.014;0.054;-2.7;5.3;26.0;60.27;6858;2018-04-16 23:27:41:846
-3.672;-13.485;0.466;-1.239;-9.401;-2.502;-2.433;-4.085;2.968;-2.081;3.774;0.04;-3.6;2.5;25.7;60.27;6867;2018-04-16 23:27:41:855
-3.181;-11.495;-4.009;-1.134;-9.325;-2.817;-2.047;-2.17;-1.192;-1.398;2.569;0.105;-4.7;1.0;27.3;54.1;6877;2018-04-16 23:27:41:865
-3.181;-11.495;-4.009;-1.134;-9.325;-2.817;-2.047;-2.17;-1.192;-0.627;0.013;0.27;-4.7;1.0;27.3;54.1;6887;2018-04-16 23:27:41:875
-2.893;-9.142;-1.334;-1.219;-9.292;-2.887;-1.745;0.518;1.962;-0.369;-0.947;0.226;-5.8;-0.6;27.4;54.1;6897;2018-04-16 23:27:41:885
-2.841;-8.517;-0.159;-1.219;-9.292;-2.887;-1.745;0.518;1.962;-0.369;-0.947;0.226;-5.8;-0.6;27.4;54.1;6907;2018-04-16 23:27:41:895
-2.841;-8.517;-0.159;-1.3;-9.274;-2.909;-1.198;0.993;2.724;-0.268;-1.337;0.092;-5.7;-1.6;28.2;54.1;6917;2018-04-16 23:27:41:905
-2.269;-8.209;0.275;-1.3;-9.274;-2.909;-1.198;0.993;2.724;-0.52;-0.6;-0.068;-5.7;-1.6;28.2;54.1;6927;2018-04-16 23:27:41:915
-2.269;-8.209;0.275;-1.298;-9.241;-3.015;-0.571;1.296;4.01;-0.678;0.084;-0.092;-4.9;-1.5;28.3;54.1;6937;2018-04-16 23:27:41:925
-1.768;-7.79;1.184;-1.298;-9.241;-3.015;-0.571;1.296;4.01;-0.678;0.084;-0.092;-4.9;-1.5;28.3;54.1;6947;2018-04-16 23:27:41:935
-1.768;-7.79;1.184;-1.212;-9.199;-3.176;-0.926;1.557;4.08;-0.739;1.016;-0.13;-4.6;-2.8;28.7;54.1;6957;2018-04-16 23:27:41:945
-2.242;-7.503;0.257;-1.212;-9.199;-3.176;-0.926;1.557;4.08;-0.705;1.674;-0.015;-4.6;-2.8;28.7;54.1;6967;2018-04-16 23:27:41:955
-2.242;-7.503;0.257;-1.112;-9.154;-3.338;-1.606;2.441;3.188;-0.641;1.718;0.112;-5.7;-3.8;28.5;54.1;6977;2018-04-16 23:27:41:965
-2.494;-6.124;-0.287;-1.112;-9.154;-3.338;-1.606;2.441;3.188;-0.641;1.718;0.112;-5.7;-3.8;28.5;54.1;6987;2018-04-16 23:27:41:975
-2.494;-6.124;-0.287;-1.112;-9.154;-3.338;-1.606;2.441;3.188;-0.594;1.356;0.226;-5.7;-3.8;27.7;54.1;6997;2018-04-16 23:27:41:985
-2.392;-5.519;0.061;-1.065;-9.108;-3.477;-1.327;3.589;3.538;-0.597;0.327;0.175;-6.6;-3.8;27.7;54.1;7008;2018-04-16 23:27:41:996
-3.108;-4.969;1.336;-1.092;-9.065;-3.578;-2.345;4.262;5.065;-0.516;-0.1;0.187;-7.3;-4.3;26.5;54.1;7018;2018-04-16 23:27:42:006
-4.059;-4.254;1.568;-1.092;-9.065;-3.578;-2.345;4.262;5.065;-0.517;-0.37;0.302;-7.3;-4.3;26.5;54.1;7028;2018-04-16 23:27:42:016
-4.059;-4.254;1.568;-1.191;-9.017;-3.667;-3.248;5.364;5.785;-0.578;-0.43;0.441;-7.2;-4.2;27.4;54.1;7038;2018-04-16 23:27:42:026
-4.551;-3.236;2.488;-1.191;-9.017;-3.667;-3.248;5.364;5.785;-0.578;-0.43;0.441;-7.2;-4.2;27.4;54.1;7048;2018-04-16 23:27:42:036
-4.551;-3.236;2.488;-1.293;-8.965;-3.759;-3.182;5.854;6.243;-0.54;-0.017;0.556;-7.2;-5.1;26.9;54.1;7058;2018-04-16 23:27:42:046
-3.587;-2.986;1.707;-1.293;-8.965;-3.759;-3.182;5.854;6.243;-0.193;0.304;0.608;-7.2;-5.1;26.9;54.1;7068;2018-04-16 23:27:42:056
-3.587;-2.986;1.707;-1.381;-8.95;-3.762;-1.361;5.719;4.769;0.199;0.294;0.619;-7.0;-4.8;26.8;54.1;7078;2018-04-16 23:27:42:066
-1.899;-3.606;0.043;-1.381;-8.95;-3.762;-1.361;5.719;4.769;0.199;0.294;0.619;-7.0;-4.8;26.8;54.1;7088;2018-04-16 23:27:42:076
-1.899;-3.606;0.043;-1.488;-8.999;-3.602;0.59;4.93;1.676;0.878;0.029;0.59;-6.6;-4.3;27.7;54.1;7097;2018-04-16 23:27:42:085
0.229;-4.902;-3.759;-1.488;-8.999;-3.602;0.59;4.93;1.676;1.26;-0.419;0.52;-6.6;-4.3;27.7;54.1;7107;2018-04-16 23:27:42:095
0.229;-4.902;-3.759;-1.616;-9.072;-3.356;3.676;2.946;-1.916;1.277;-0.858;0.425;-6.8;-4.6;27.8;54.1;7118;2018-04-16 23:27:42:106
2.587;-6.571;-5.613;-1.616;-9.072;-3.356;3.676;2.946;-1.916;1.277;-0.858;0.425;-6.8;-4.6;27.8;54.1;7128;2018-04-16 23:27:42:116
3.588;-9.716;-7.373;-1.722;-9.141;-3.107;5.31;-0.575;-4.266;1.135;-1.695;0.073;-7.2;-4.8;27.7;54.1;7138;2018-04-16 23:27:42:126
3.588;-9.716;-7.373;-1.722;-9.141;-3.107;5.31;-0.575;-4.266;0.728;-2.246;-0.371;-7.2;-4.8;27.7;54.1;7148;2018-04-16 23:27:42:136
4.265;-14.681;-10.242;-1.768;-9.184;-2.949;6.632;-7.411;-7.931;0.191;-2.222;-0.573;-7.4;-4.9;27.8;54.1;7158;2018-04-16 23:27:42:146
5.167;-17.822;-9.373;-1.768;-9.184;-2.949;6.632;-7.411;-7.931;0.191;-2.222;-0.573;-7.4;-4.9;27.8;54.1;7168;2018-04-16 23:27:42:156
5.167;-17.822;-9.373;-1.751;-9.183;-2.963;6.413;-7.415;-3.778;-0.463;-1.89;-0.689;-7.3;-4.9;27.8;54.1;7178;2018-04-16 23:27:42:166
3.743;-13.702;-6.27;-1.751;-9.183;-2.963;6.413;-7.415;-3.778;-0.411;-0.908;-0.588;-7.3;-4.9;27.8;54.1;7188;2018-04-16 23:27:42:176
3.743;-13.702;-6.27;-1.65;-9.18;-3.029;3.654;-3.121;-4.401;-0.378;0.441;-0.618;-7.2;-4.9;27.8;54.1;7198;2018-04-16 23:27:42:186
1.172;-11.933;-8.01;-1.65;-9.18;-3.029;3.654;-3.121;-4.401;-0.378;0.441;-0.618;-7.2;-4.9;27.8;54.1;7208;2018-04-16 23:27:42:196
-2.802;-10.387;-10.151;-1.487;-9.176;-3.122;-1.315;-1.211;-7.029;-0.403;0.962;-0.618;-7.1;-5.0;27.9;58.74;7218;2018-04-16 23:27:42:206
-2.802;-10.387;-10.151;-1.487;-9.176;-3.122;-1.315;-1.211;-7.029;-0.062;0.243;-0.409;-7.1;-5.0;27.9;58.74;7228;2018-04-16 23:27:42:216
-5.192;-8.353;-6.744;-1.432;-9.195;-3.095;-3.76;0.841;-3.65;0.288;-0.476;-0.309;-7.1;-5.0;27.9;58.74;7238;2018-04-16 23:27:42:226
-5.192;-8.353;-6.744;-1.432;-9.195;-3.095;-3.76;0.841;-3.65;0.288;-0.476;-0.309;-7.1;-5.0;27.9;58.74;7248;2018-04-16 23:27:42:236
-5.8;-8.034;-2.417;-1.443;-9.251;-2.918;-4.767;1.195;1.346;0.822;-0.959;-0.347;-7.1;-5.0;28.0;58.74;7258;2018-04-16 23:27:42:246
-7.046;-8.125;-0.761;-1.443;-9.251;-2.918;-4.767;1.195;1.346;0.729;-0.674;-0.326;-7.1;-5.0;28.0;58.74;7268;2018-04-16 23:27:42:256
-7.046;-8.125;-0.761;-1.443;-9.251;-2.918;-4.767;1.195;1.346;0.729;-0.674;-0.326;-7.1;-5.0;28.0;58.74;7277;2018-04-16 23:27:42:265
-9.93;-9.913;-0.47;-1.424;-9.285;-2.814;-7.189;0.55;2.301;0.275;-0.32;-0.199;-7.1;-4.9;28.2;58.74;7287;2018-04-16 23:27:42:275
-9.93;-9.913;-0.47;-1.424;-9.285;-2.814;-7.189;0.55;2.301;-0.413;0.376;0.258;-7.1;-4.9;28.2;58.74;7297;2018-04-16 23:27:42:285
-10.05;-11.089;-1.409;-1.454;-9.255;-2.897;-8.595;-1.833;1.488;-0.426;0.25;0.589;-6.9;-4.8;28.2;58.74;7307;2018-04-16 23:27:42:295
-6.891;-12.711;-5.2;-1.582;-9.221;-2.94;-5.308;-3.49;-2.26;-0.148;-0.544;0.681;-6.8;-4.6;28.4;58.74;7317;2018-04-16 23:27:42:305
-6.891;-12.711;-5.2;-1.582;-9.221;-2.94;-5.308;-3.49;-2.26;-0.148;-0.544;0.681;-6.8;-4.6;28.4;58.74;7327;2018-04-16 23:27:42:315
-0.881;-12.349;1.041;-1.762;-9.215;-2.854;0.881;-3.134;3.895;0.216;-1.423;0.595;-6.5;-4.4;28.7;58.74;7338;2018-04-16 23:27:42:326
-0.881;-12.349;1.041;-1.762;-9.215;-2.854;0.881;-3.134;3.895;0.7;0.269;0.368;-6.5;-4.4;28.7;58.74;7348;2018-04-16 23:27:42:336
0.436;-8.321;4.736;-1.734;-9.258;-2.73;1.056;1.77;7.366;0.815;1.611;0.067;-6.3;-4.1;28.9;58.74;7357;2018-04-16 23:27:42:345
-1.595;-6.874;3.317;-1.734;-9.258;-2.73;1.056;1.77;7.366;0.724;2.355;-0.13;-6.3;-4.1;28.9;58.74;7367;2018-04-16 23:27:42:355
-1.595;-6.874;3.317;-1.581;-9.298;-2.687;-0.38;2.405;4.918;0.617;2.55;-0.086;-6.0;-3.9;29.1;58.74;7377;2018-04-16 23:27:42:365
-2.641;-7.699;1.189;-1.581;-9.298;-2.687;-0.38;2.405;4.918;0.571;2.304;0.125;-6.0;-3.9;29.1;58.74;7387;2018-04-16 23:27:42:375
-2.641;-7.699;1.189;-1.581;-9.298;-2.687;-0.38;2.405;4.918;0.571;2.304;0.125;-6.0;-3.9;29.1;58.74;7397;2018-04-16 23:27:42:385
-2.941;-9.979;0.426;-1.535;-9.319;-2.639;-1.616;0.374;3.338;0.461;1.779;0.445;-6.0;-3.6;29.2;58.74;7407;2018-04-16 23:27:42:395
-2.941;-9.979;0.426;-1.663;-9.3;-2.628;-0.684;-1.701;3.162;0.195;0.871;0.936;-5.9;-3.4;29.2;58.74;7417;2018-04-16 23:27:42:405
-1.663;-11.782;0.81;-1.663;-9.3;-2.628;-0.684;-1.701;3.162;-0.142;0.083;1.07;-5.9;-3.4;29.2;58.74;7427;2018-04-16 23:27:42:415
-1.663;-11.782;0.81;-1.86;-9.254;-2.66;1.017;-2.755;3.571;-0.263;-0.391;0.963;-6.0;-3.2;29.2;58.74;7437;2018-04-16 23:27:42:425
-0.315;-11.812;0.897;-1.86;-9.254;-2.66;1.017;-2.755;3.571;-0.252;-1.004;0.768;-6.0;-3.2;29.2;58.74;7447;2018-04-16 23:27:42:435
-0.315;-11.812;0.897;-1.86;-9.219;-2.633;1.852;-2.059;3.506;-0.097;-1.794;0.586;-6.1;-3.1;29.2;58.74;7457;2018-04-16 23:27:42:445
-0.146;-10.549;0.612;-2.059;-9.219;-2.633;1.852;-2.059;3.506;-0.097;-1.794;0.586;-6.1;-3.1;29.2;58.74;7467;2018-04-16 23:27:42:455
-0.146;-10.549;0.612;-2.288;-9.214;-2.459;2.501;-0.572;2.819;0.195;-2.772;0.53;-6.2;-3.0;29.3;58.74;7477;2018-04-16 23:27:42:465
0.962;-9.185;0.614;-2.288;-9.214;-2.459;2.501;-0.572;2.819;0.376;-3.084;0.502;-6.2;-3.0;29.3;58.74;7487;2018-04-16 23:27:42:475
0.962;-9.185;0.614;-2.489;-9.226;-2.205;3.784;0.792;4.387;0.677;-2.931;0.291;-6.3;-2.8;29.3;58.74;7497;2018-04-16 23:27:42:485
1.196;-7.93;3.093;-2.489;-9.226;-2.205;3.784;0.792;4.387;1.925;-2.678;-0.012;-6.3;-2.8;29.3;58.74;7507;2018-04-16 23:27:42:495
1.196;-7.93;3.093;-2.537;-9.337;-1.599;3.133;0.343;3.69;3.14;-2.269;-0.334;-6.2;-2.6;29.2;58.74;7517;2018-04-16 23:27:42:505
-0.141;-10.453;1.059;-2.537;-9.337;-1.599;3.133;0.343;3.69;3.14;-2.269;-0.334;-6.2;-2.6;29.2;58.74;7527;2018-04-16 23:27:42:515
-0.141;-10.453;1.059;-2.44;-9.459;-0.868;1.887;-1.423;1.502;3.585;-1.411;-0.702;-6.0;-2.2;29.3;56.4;7537;2018-04-16 23:27:42:525
-1.195;-9.931;0.174;-2.44;-9.459;-0.868;1.887;-1.423;1.502;2.889;-0.269;-0.691;-6.0;-2.2;29.3;56.4;7547;2018-04-16 23:27:42:535
-1.195;-9.931;0.174;-2.314;-9.522;-0.395;1.097;0.148;0.665;2.286;0.792;-0.567;-5.0;-0.6;29.4;56.4;7557;2018-04-16 23:27:42:545
-0.642;-7.718;-0.3;-2.314;-9.522;-0.395;1.097;0.148;0.665;2.286;0.792;-0.567;-5.0;-0.6;29.4;56.4;7568;2018-04-16 23:27:42:556
-0.642;-7.718;-0.3;-2.198;-9.555;-0.205;1.753;2.032;-0.427;1.565;2.388;-0.519;-4.4;1.2;29.5;56.4;7577;2018-04-16 23:27:42:565
-0.475;-7.592;-0.692;-2.198;-9.555;-0.205;1.753;2.032;-0.427;1.102;3.185;-0.634;-4.4;1.2;29.5;56.4;7587;2018-04-16 23:27:42:575
-0.475;-7.592;-0.692;-2.065;-9.586;-0.143;1.533;1.923;-0.581;0.999;3.315;-0.634;-5.1;1.8;29.3;56.4;7597;2018-04-16 23:27:42:585
-0.843;-8.413;-1.453;-2.065;-9.586;-0.143;1.533;1.923;-0.581;1.001;3.174;-0.553;-5.1;1.8;29.3;56.4;7607;2018-04-16 23:27:42:595
-0.843;-8.413;-1.453;-1.964;-9.608;-0.071;1.128;0.677;-1.936;1.031;2.65;-0.425;-5.8;3.0;28.8;56.4;7617;2018-04-16 23:27:42:605
-0.831;-9.073;-2.382;-1.964;-9.608;-0.071;1.128;0.677;-1.936;1.031;2.65;-0.425;-5.8;3.0;28.8;56.4;7627;2018-04-16 23:27:42:615
-0.831;-9.073;-2.382;-1.905;-9.62;0.053;1.077;0.549;-2.584;1.048;1.41;-0.285;-6.2;4.1;29.4;56.4;7638;2018-04-16 23:27:42:626
-0.933;-9.179;-2.326;-1.905;-9.62;0.053;1.077;0.549;-2.584;0.88;0.182;-0.192;-6.2;4.1;29.4;56.4;7648;2018-04-16 23:27:42:636
-0.933;-9.179;-2.326;-1.872;-9.624;0.191;0.745;0.457;-2.032;0.704;-0.507;-0.109;-6.8;4.7;29.1;56.4;7657;2018-04-16 23:27:42:645
-1.221;-9.151;-1.279;-1.872;-9.624;0.191;0.745;0.457;-2.032;0.704;-0.507;-0.109;-6.8;4.7;29.1;56.4;7667;2018-04-16 23:27:42:655
-1.221;-9.151;-1.279;-1.873;-9.62;0.333;0.468;0.223;-0.989;0.529;-1.245;0.049;-7.0;4.9;28.2;56.4;7677;2018-04-16 23:27:42:665
-1.578;-9.79;-0.213;-1.873;-9.62;0.333;0.468;0.223;-0.989;0.681;-1.775;0.125;-7.0;4.9;28.2;56.4;7687;2018-04-16 23:27:42:675
-1.599;-10.045;0.097;-1.88;-9.609;0.556;0.281;-0.436;-0.459;0.889;-2.005;0.144;-6.3;6.3;29.1;56.4;7697;2018-04-16 23:27:42:685
-1.599;-10.045;0.097;-1.88;-9.609;0.556;0.281;-0.436;-0.459;0.889;-2.005;0.144;-6.3;6.3;29.1;56.4;7707;2018-04-16 23:27:42:695
-1.14;-10.1;0.685;-1.873;-9.59;0.835;0.733;-0.51;-0.15;1.106;-2.029;0.13;-6.0;6.6;27.9;56.4;7717;2018-04-16 23:27:42:705
-1.14;-10.1;0.685;-1.873;-9.59;0.835;0.733;-0.51;-0.15;1.062;-1.599;0.077;-6.0;6.6;27.9;56.4;7727;2018-04-16 23:27:42:715
-0.508;-9.663;0.921;-1.84;-9.571;1.084;1.444;-0.072;0.054;1.032;-1.223;-0.004;-5.0;7.4;28.2;56.4;7737;2018-04-16 23:27:42:725
-0.66;-9.862;1.507;-1.84;-9.571;1.084;1.444;-0.072;0.054;1.032;-1.223;-0.004;-5.0;7.4;28.2;56.4;7748;2018-04-16 23:27:42:736
-0.66;-9.862;1.507;-1.792;-9.547;1.349;1.146;-0.29;-0.173;1.201;-0.656;-0.143;-4.9;7.3;28.8;56.4;7758;2018-04-16 23:27:42:746
-0.528;-9.904;0.116;-1.792;-9.547;1.349;1.146;-0.29;-0.173;1.664;-0.031;-0.197;-4.9;7.3;28.8;56.4;7767;2018-04-16 23:27:42:755
-0.528;-9.904;0.116;-1.742;-9.505;1.668;1.164;-0.551;-2.536;1.841;0.054;-0.26;-4.8;8.5;28.5;56.4;7777;2018-04-16 23:27:42:765
-0.814;-10.284;-1.827;-1.742;-9.505;1.668;1.164;-0.551;-2.536;1.841;0.054;-0.26;-4.8;8.5;28.5;56.4;7787;2018-04-16 23:27:42:775
-0.814;-10.284;-1.827;-1.742;-9.505;1.668;1.164;-0.551;-2.536;1.996;0.078;-0.353;-4.8;8.5;28.5;56.4;7797;2018-04-16 23:27:42:785
-1.115;-10.841;-3.014;-1.679;-9.445;2.036;0.564;-1.396;-5.05;1.677;0.367;-0.369;-5.1;8.9;27.2;56.4;7807;2018-04-16 23:27:42:795
-1.188;-11.031;-5.766;-1.636;-9.399;2.268;0.449;-1.632;-8.034;1.079;0.731;-0.352;-5.0;9.4;27.3;56.4;7817;2018-04-16 23:27:42:805
-1.188;-11.031;-5.766;-1.636;-9.399;2.268;0.449;-1.632;-8.034;1.079;0.731;-0.352;-5.0;9.4;27.3;56.4;7827;2018-04-16 23:27:42:815
-1.27;-11.139;-5.37;-1.636;-9.399;2.268;0.449;-1.632;-8.034;-0.11;1.178;-0.246;-5.0;9.4;27.3;56.4;7837;2018-04-16 23:27:42:825
-1.358;-11.372;-4.549;-1.643;-9.413;2.204;0.285;-1.959;-6.753;-0.462;1.214;-0.203;-5.2;10.3;27.3;56.4;7847;2018-04-16 23:27:42:835
-1.358;-11.372;-4.549;-1.643;-9.413;2.204;0.285;-1.959;-6.753;-1.166;0.811;-0.084;-5.2;10.3;27.3;54.66;7857;2018-04-16 23:27:42:845
-0.736;-12.792;-0.522;-1.665;-9.483;1.861;0.929;-3.309;-2.383;-1.21;0.509;-0.075;-5.9;9.8;27.3;54.66;7867;2018-04-16 23:27:42:855
-0.736;-12.792;-0.522;-1.665;-9.483;1.861;0.929;-3.309;-2.383;-1.148;0.302;-0.073;-5.9;9.8;27.3;54.66;7878;2018-04-16 23:27:42:866
0.16;-12.771;0.736;-1.659;-9.524;1.644;2.273;-3.02;-0.693;-1.148;0.302;-0.073;-6.0;10.0;27.1;54.66;7887;2018-04-16 23:27:42:875
1.346;-12.202;0.928;-1.659;-9.524;1.644;2.273;-3.02;-0.693;-0.964;0.131;-0.099;-6.0;10.0;27.1;54.66;7898;2018-04-16 23:27:42:886
1.346;-12.202;0.928;-1.628;-9.557;1.477;3.355;-2.736;-0.958;-0.825;-0.053;-0.214;-6.2;10.1;27.1;54.66;7908;2018-04-16 23:27:42:896
1.747;-12.458;0.299;-1.628;-9.557;1.477;3.355;-2.736;-0.958;-0.778;-0.297;-0.297;-6.2;10.1;27.1;54.66;7918;2018-04-16 23:27:42:906
1.336;-12.567;-0.733;-1.555;-9.588;1.35;2.891;-2.979;-2.082;-0.778;-0.297;-0.297;-6.2;10.5;27.1;54.66;7928;2018-04-16 23:27:42:916
1.336;-12.567;-0.733;-1.555;-9.588;1.35;2.891;-2.979;-2.082;-0.701;-0.958;-0.316;-6.2;10.5;27.1;54.66;7938;2018-04-16 23:27:42:926
0.043;-12.148;-2.322;-1.5;-9.606;1.286;1.543;-2.543;-3.608;-0.732;-1.144;-0.318;-6.2;10.6;27.0;54.66;7948;2018-04-16 23:27:42:936
-3.221;-11.028;-5.037;-1.407;-9.64;1.125;-1.815;-1.388;-6.163;-1.057;-1.582;-0.318;-6.2;10.8;26.9;54.66;7958;2018-04-16 23:27:42:946
-3.221;-11.028;-5.037;-1.407;-9.64;1.125;-1.815;-1.388;-6.163;-1.858;-1.691;-0.2;-6.2;10.8;26.9;54.66;7967;2018-04-16 23:27:42:955
-3.221;-10.075;-2.324;-1.407;-9.64;0.727;-1.815;-1.388;-3.051;-2.643;-1.547;-0.023;-6.0;11.0;26.9;54.66;7977;2018-04-16 23:27:42:965
-3.284;-10.075;-2.324;-1.357;-9.685;0.727;-1.927;-0.39;-3.051;-2.643;-1.547;-0.023;-6.0;11.0;26.9;54.66;7987;2018-04-16 23:27:42:975
-2.259;-10.533;2.077;-1.357;-9.685;0.727;-1.927;-0.39;-3.051;-3.533;-0.988;0.002;-6.0;11.0;26.9;54.66;7997;2018-04-16 23:27:42:985
-2.55;-11.697;4.584;-1.347;-9.713;0.072;-0.906;-1.154;3.124;-3.771;-0.243;-0.093;-5.9;11.0;26.9;54.66;8007;2018-04-16 23:27:42:995
-2.55;-11.697;4.584;-1.325;-9.695;-0.653;-1.788;-3.065;5.876;-3.684;0.299;-0.117;-5.8;10.8;27.1;54.66;8017;2018-04-16 23:27:43:005
-3.412;-13.959;5.605;-1.325;-9.695;-0.653;-1.788;-3.065;5.876;-3.401;1.288;-0.084;-5.8;10.8;27.1;54.66;8027;2018-04-16 23:27:43:015
-3.412;-13.959;5.605;-1.277;-9.632;-1.325;-2.56;-4.865;6.597;-3.152;1.949;-0.061;-5.7;9.4;27.6;54.66;8038;2018-04-16 23:27:43:026
-4.475;-14.849;4.99;-1.277;-9.632;-1.325;-2.56;-4.865;6.597;-2.908;2.516;-0.006;-5.7;9.4;27.6;54.66;8048;2018-04-16 23:27:43:036
-4.475;-14.849;4.99;-1.193;-9.541;-1.926;-3.429;-4.859;6.593;-2.663;3.043;0.078;-5.9;6.4;29.5;54.66;8058;2018-04-16 23:27:43:046
-4.202;-13.61;2.434;-1.193;-9.541;-1.926;-3.429;-4.859;6.593;-2.663;3.043;0.078;-5.9;6.4;29.5;54.66;8068;2018-04-16 23:27:43:056
-4.202;-13.61;2.434;-1.079;-9.445;-2.409;-2.68;-4.021;2.83;-2.246;3.313;0.103;-7.0;4.1;29.6;54.66;8078;2018-04-16 23:27:43:066
-3.947;-12.064;-0.487;-1.079;-9.445;-2.409;-2.68;-4.021;2.83;-1.189;1.195;0.144;-7.0;4.1;29.6;54.66;8087;2018-04-16 23:27:43:075
-3.947;-12.064;-0.487;-1.089;-9.393;-2.599;-2.452;-0.392;1.404;-0.765;-0.011;0.204;-8.8;1.7;30.2;54.66;8097;2018-04-16 23:27:43:085
-3.573;-9.36;-1.286;-1.089;-9.393;-2.599;-2.452;-0.392;1.404;-0.765;-0.011;0.204;-8.8;1.7;30.2;54.66;8107;2018-04-16 23:27:43:095
-2.914;-8.663;-1.932;-1.203;-9.355;-2.683;-1.71;0.692;0.751;-0.629;-0.991;0.249;-9.4;0.5;30.0;54.66;8117;2018-04-16 23:27:43:105
-2.914;-8.663;-1.932;-1.203;-9.355;-2.683;-1.71;0.692;0.751;-0.635;-1.454;0.258;-9.4;0.5;30.0;54.66;8128;2018-04-16 23:27:43:116
-3.194;-8.812;-1.659;-1.369;-9.308;-2.766;-1.694;0.628;1.455;-0.776;-1.75;0.364;-8.6;0.0;31.8;54.66;8137;2018-04-16 23:27:43:125
-2.617;-8.521;0.045;-1.369;-9.308;-2.766;-1.694;0.628;1.455;-0.937;-1.429;0.456;-8.6;0.0;31.8;54.66;8147;2018-04-16 23:27:43:135
-2.617;-8.521;0.045;-1.369;-9.308;-2.766;-1.694;0.628;1.455;-0.937;-1.429;0.456;-8.6;0.0;31.8;54.66;8158;2018-04-16 23:27:43:146
-1.974;-8.373;1.263;-1.516;-9.24;-2.915;-0.458;0.867;4.178;-1.027;-0.74;0.483;-7.7;-0.3;32.0;54.66;8167;2018-04-16 23:27:43:155
-0.874;-7.596;1.384;-1.538;-9.176;-3.1;0.664;1.58;4.484;-0.861;0.975;0.235;-7.3;-1.4;31.4;53.29;8178;2018-04-16 23:27:43:166
-0.874;-7.596;1.384;-1.538;-9.176;-3.1;0.664;1.58;4.484;-0.861;0.975;0.235;-7.3;-1.4;31.4;53.29;8187;2018-04-16 23:27:43:175
-1.04;-6.704;1.176;-1.414;-9.139;-3.265;1.04;2.571;3.873;-0.596;1.962;0.004;-8.2;-2.5;32.6;53.29;8198;2018-04-16 23:27:43:186
-1.201;-6.732;0.57;-1.414;-9.139;-3.265;1.04;2.571;3.873;-0.188;2.144;-0.233;-8.2;-2.5;32.6;53.29;8207;2018-04-16 23:27:43:195
-2.698;-6.432;-0.427;-1.242;-9.145;-3.315;-1.456;2.713;2.887;0.149;1.642;-0.287;-8.6;-1.8;31.5;53.29;8218;2018-04-16 23:27:43:206
-2.698;-6.432;-0.427;-1.242;-9.145;-3.315;-1.456;2.713;2.887;0.149;1.642;-0.287;-8.6;-1.8;31.5;53.29;8227;2018-04-16 23:27:43:215
-3.22;-5.063;0.242;-1.189;-9.159;-3.296;-2.37;4.428;4.035;0.202;0.646;-0.057;-10.0;-2.4;32.8;53.29;8238;2018-04-16 23:27:43:226
-4.196;-4.345;1.684;-1.189;-9.159;-3.296;-2.37;4.428;4.035;-0.011;0.1;0.112;-10.0;-2.4;32.8;53.29;8247;2018-04-16 23:27:43:235
-4.196;-4.345;1.684;-1.224;-9.146;-3.32;-3.142;5.332;5.817;-0.231;0.015;0.28;-9.8;-2.4;31.8;53.29;8258;2018-04-16 23:27:43:246
-4.379;-3.576;2.971;-1.224;-9.146;-3.32;-3.142;5.332;5.817;-0.443;0.088;0.434;-9.8;-2.4;31.8;53.29;8267;2018-04-16 23:27:43:255
-4.379;-3.576;2.971;-1.224;-9.146;-3.32;-3.142;5.332;5.817;-0.443;0.088;0.434;-9.8;-2.4;31.8;53.29;8278;2018-04-16 23:27:43:266
-3.998;-3.059;3.63;-1.295;-9.102;-3.412;-2.703;6.043;7.042;-0.502;0.215;0.485;-9.4;-2.3;32.2;53.29;8287;2018-04-16 23:27:43:275
-3.053;-3.041;2.146;-1.345;-9.074;-3.467;-1.708;6.034;5.613;-0.247;0.673;0.508;-9.0;-1.8;31.8;53.29;8298;2018-04-16 23:27:43:286
-3.053;-3.041;2.146;-1.345;-9.074;-3.467;-1.708;6.034;5.613;0.662;0.224;0.461;-9.0;-1.8;31.8;53.29;8308;2018-04-16 23:27:43:296
-2.699;-3.32;1.035;-1.345;-9.074;-3.467;-1.708;6.034;5.613;0.662;0.224;0.461;-9.0;-1.8;31.8;53.29;8317;2018-04-16 23:27:43:305
-2.324;-3.409;0.006;-1.429;-9.124;-3.298;-1.096;5.75;3.64;1.506;-0.557;0.492;-9.1;-2.2;31.7;53.29;8328;2018-04-16 23:27:43:316
-0.085;-4.221;-1.753;-1.564;-9.211;-2.98;1.479;4.99;1.227;1.688;-0.988;0.446;-9.4;-2.5;31.9;53.29;8337;2018-04-16 23:27:43:325
-0.085;-4.221;-1.753;-1.564;-9.211;-2.98;1.479;4.99;1.227;1.688;-0.988;0.446;-9.4;-2.5;31.9;53.29;8347;2018-04-16 23:27:43:335
1.207;-11.999;-5.145;-1.685;-9.293;-2.64;2.892;-2.706;-2.505;1.36;-2.154;-0.017;-9.7;-2.8;31.9;53.29;8358;2018-04-16 23:27:43:346
1.207;-11.999;-5.145;-1.685;-9.293;-2.64;2.892;-2.706;-2.505;1.36;-2.154;-0.017;-9.7;-2.8;31.9;53.29;8367;2018-04-16 23:27:43:355
1.198;-18.556;-8.993;-1.685;-9.293;-2.64;2.892;-2.706;-2.505;0.595;-2.899;-0.189;-9.7;-2.8;31.9;53.29;8377;2018-04-16 23:27:43:365
1.287;-20.146;-11.897;-1.809;-9.327;-2.431;3.096;-10.819;-9.466;0.338;-3.106;-0.076;-9.9;-2.9;32.0;53.29;8388;2018-04-16 23:27:43:376
1.287;-20.146;-11.897;-1.809;-9.327;-2.431;3.096;-10.819;-9.466;0.338;-3.106;-0.076;-9.9;-2.9;32.0;53.29;8397;2018-04-16 23:27:43:385
6.827;-18.203;-25.529;-2.06;-9.286;-2.385;8.887;-8.917;-23.144;-0.808;-3.561;0.503;-9.8;-2.9;32.2;53.29;8408;2018-04-16 23:27:43:396
6.827;-18.203;-25.529;-2.06;-9.286;-2.385;8.887;-8.917;-23.144;-0.808;-3.561;0.503;-9.8;-2.9;32.2;53.29;8417;2018-04-16 23:27:43:405
1.677;-14.455;-7.651;-2.094;-9.204;-2.657;3.771;-5.251;-4.993;-1.969;-0.778;-0.459;-9.5;-2.9;32.3;53.29;8428;2018-04-16 23:27:43:416
0.192;-10.1;-4.744;-2.094;-9.204;-2.657;3.771;-5.251;-4.993;-1.104;2.58;-0.527;-9.5;-2.9;32.3;53.29;8438;2018-04-16 23:27:43:426
0.192;-10.1;-4.744;-1.853;-9.166;-2.952;1.781;0.098;-2.33;-1.104;2.58;-0.527;-9.2;-2.9;32.6;53.29;8447;2018-04-16 23:27:43:435
-1.761;-8.568;-4.583;-1.853;-9.166;-2.952;1.781;0.098;-2.33;0.162;3.294;-0.671;-9.2;-2.9;32.6;53.29;8458;2018-04-16 23:27:43:446
-1.761;-8.568;-4.583;-1.559;-9.223;-2.946;-1.953;0.749;0.322;0.979;2.717;-0.707;-9.1;-3.0;32.7;53.29;8468;2018-04-16 23:27:43:456
-3.559;-7.605;-2.54;-1.559;-9.223;-2.946;-1.953;0.749;0.322;1.589;1.98;-0.622;-9.2;-3.0;32.8;53.29;8477;2018-04-16 23:27:43:465
-3.559;-7.605;-2.54;-1.359;-9.333;-2.686;-2.383;2.701;1.213;1.589;1.98;-0.622;-9.2;-3.0;32.8;53.29;8488;2018-04-16 23:27:43:476
-3.74;-5.757;0.818;-1.359;-9.333;-2.686;-2.383;2.701;1.213;1.284;0.09;-0.867;-9.2;-3.0;32.8;53.29;8498;2018-04-16 23:27:43:486
-5.278;-9.079;3.231;-1.182;-9.41;-2.494;-3.151;3.03;4.628;0.228;0.103;-0.878;-9.3;-2.9;32.9;53.29;8510;2018-04-16 23:27:43:498
-5.278;-11.663;2.594;-1.047;-9.426;-2.495;-4.922;-2.237;5.089;-0.143;0.363;-0.496;-9.3;-2.7;33.0;61.1;8517;2018-04-16 23:27:43:505
-5.969;-11.663;2.594;-1.047;-9.426;-2.495;-4.922;-2.237;5.089;-0.143;0.363;-0.496;-9.3;-2.7;33.0;61.1;8528;2018-04-16 23:27:43:516
-6.47;-14.012;-0.401;-1.061;-9.388;-2.627;-5.41;-4.624;2.226;-0.43;0.48;-0.01;-9.3;-2.5;33.0;61.1;8538;2018-04-16 23:27:43:526
-6.47;-14.012;-0.401;-1.061;-9.388;-2.627;-5.41;-4.624;2.226;-1.031;0.777;0.585;-9.3;-2.5;33.0;61.1;8548;2018-04-16 23:27:43:536
-6.155;-16.91;-19.573;-1.108;-9.352;-2.735;-5.047;-7.558;-16.837;-1.261;-1.036;0.806;-9.3;-2.4;33.1;61.1;8559;2018-04-16 23:27:43:547
-3.061;-10.113;1.647;-1.487;-9.278;-2.805;-1.574;-0.835;4.452;-0.797;-5.558;0.627;-9.3;-2.3;33.1;61.1;8567;2018-04-16 23:27:43:555
-3.061;-10.113;1.647;-1.487;-9.278;-2.805;-1.574;-0.835;4.452;-0.797;-5.558;0.627;-9.3;-2.3;33.1;61.1;8577;2018-04-16 23:27:43:565
-4.051;-6.8;9.77;-1.691;-9.266;-2.728;-1.978;3.07;10.296;-0.389;-4.645;0.276;-9.0;-2.2;33.4;61.1;8588;2018-04-16 23:27:43:576
-4.051;-6.8;9.77;-1.691;-9.266;-2.728;-1.978;3.07;10.296;0.089;-0.947;0.116;-9.0;-2.2;33.4;61.1;8598;2018-04-16 23:27:43:586
-3.84;-6.029;4.192;-1.685;-9.267;-2.729;-2.156;3.239;6.921;0.089;1.454;0.304;-8.8;-2.2;33.5;61.1;8607;2018-04-16 23:27:43:595
-3.84;-6.029;4.192;-1.685;-9.267;-2.729;-2.156;3.239;6.921;0.007;1.454;0.304;-8.8;-2.2;33.5;61.1;8617;2018-04-16 23:27:43:605
-4.14;-7.488;1.523;-1.68;-9.249;-2.795;-2.46;1.761;4.318;-0.111;1.856;0.607;-8.4;-2.0;33.8;61.1;8627;2018-04-16 23:27:43:615
-4.14;-7.488;1.523;-1.68;-9.249;-2.795;-2.46;1.761;4.318;-0.232;1.973;0.825;-8.4;-2.0;33.8;61.1;8638;2018-04-16 23:27:43:626
-3.049;-9.996;0.968;-1.731;-9.209;-2.892;-1.318;-0.787;3.86;-0.305;1.831;0.841;-8.0;-1.9;33.9;61.1;8647;2018-04-16 23:27:43:635
-3.049;-9.996;0.968;-1.731;-9.209;-2.892;-1.318;-0.787;3.86;-0.305;1.831;0.841;-8.0;-1.9;33.9;61.1;8657;2018-04-16 23:27:43:645
-2.599;-11.115;1.213;-1.774;-9.173;-2.98;-0.825;-1.942;4.193;-0.192;1.139;0.596;-7.7;-1.9;34.1;61.1;8668;2018-04-16 23:27:43:656
-1.719;-9.816;0.363;-1.825;-9.167;-2.966;0.106;-0.649;3.329;-0.002;0.663;0.486;-7.6;-1.9;34.3;61.1;8679;2018-04-16 23:27:43:667
-1.719;-9.816;0.363;-1.825;-9.167;-2.966;0.106;-0.649;3.329;0.202;-0.012;0.315;-7.6;-1.9;34.3;61.1;8688;2018-04-16 23:27:43:676
-1.262;-9.133;-0.294;-1.889;-9.183;-2.877;0.627;0.05;2.583;0.327;-0.641;0.202;-7.6;-1.9;34.5;61.1;8698;2018-04-16 23:27:43:686
-1.262;-9.133;-0.294;-1.889;-9.183;-2.877;0.627;0.05;2.583;0.327;-0.641;0.202;-7.6;-1.9;34.5;61.1;8708;2018-04-16 23:27:43:696
-0.783;-8.746;-0.277;-1.928;-9.188;-2.835;1.145;0.442;2.559;0.327;-0.848;0.225;-7.7;-2.0;34.6;61.1;8717;2018-04-16 23:27:43:705
-0.124;-9.374;0.685;-2.012;-9.209;-2.705;1.887;-0.166;3.39;0.512;-1.041;0.195;-7.9;-2.0;34.7;61.1;8728;2018-04-16 23:27:43:716
-0.124;-9.374;0.685;-2.012;-9.209;-2.705;1.887;-0.166;3.39;0.512;-1.041;0.195;-7.9;-2.0;34.7;61.1;8738;2018-04-16 23:27:43:726
0.486;-9.395;1.466;-2.076;-9.27;-2.436;2.691;0.054;4.341;0.82;-1.062;0.194;-8.0;-1.9;34.7;61.1;8748;2018-04-16 23:27:43:736
0.486;-9.395;1.466;-2.076;-9.27;-2.436;2.691;0.054;4.341;1.663;-1.053;0.16;-8.0;-1.9;34.7;61.1;8758;2018-04-16 23:27:43:746
0.721;-9.066;1.627;-2.105;-9.321;-2.205;2.826;0.255;3.831;2.441;-0.867;0.016;-8.0;-1.8;34.7;61.1;8767;2018-04-16 23:27:43:755
0.59;-9.021;0.905;-2.111;-9.427;-1.685;2.539;0.5;2.449;2.654;-0.71;-0.139;-7.8;-1.7;34.8;61.1;8777;2018-04-16 23:27:43:765
0.59;-9.021;0.905;-2.111;-9.427;-1.685;2.539;0.5;2.449;2.654;-0.71;-0.139;-7.8;-1.7;34.8;61.1;8787;2018-04-16 23:27:43:775
0.065;-8.538;0.285;-2.078;-9.514;-1.152;2.143;0.977;1.437;2.718;-0.465;-0.25;-7.5;-1.4;35.0;61.1;8799;2018-04-16 23:27:43:787
-0.044;-8.517;0.043;-2.06;-9.543;-0.921;1.9;0.857;0.838;2.656;-0.332;-0.248;-7.4;-1.2;35.0;61.1;8808;2018-04-16 23:27:43:796
-0.326;-9.106;-0.323;-2.06;-9.543;-0.921;1.9;0.857;0.838;2.437;-0.161;-0.204;-7.4;-1.2;35.0;61.1;8817;2018-04-16 23:27:43:805
-0.326;-9.106;-0.323;-2.016;-9.586;-0.472;1.797;0.234;-0.099;2.437;-0.161;-0.204;-7.1;-0.8;35.1;61.1;8827;2018-04-16 23:27:43:815
-0.326;-9.106;-0.323;-2.016;-9.586;-0.472;1.797;0.234;-0.099;2.082;-0.018;-0.158;-7.1;-0.8;35.1;60.09;8838;2018-04-16 23:27:43:826
-0.225;-9.414;-0.775;-1.974;-9.605;-0.13;1.764;0.143;-0.684;1.812;0.027;-0.153;-6.6;0.8;35.0;60.09;8847;2018-04-16 23:27:43:835
-0.109;-9.418;-0.668;-1.974;-9.605;-0.13;1.764;0.143;-0.684;1.578;-0.004;-0.13;-6.6;0.8;35.0;60.09;8858;2018-04-16 23:27:43:846
-0.636;-9.571;0.819;-1.92;-9.614;0.226;1.285;0.043;0.593;1.523;-0.09;-0.143;-6.1;3.0;35.1;60.09;8868;2018-04-16 23:27:43:856
-0.636;-9.571;0.819;-1.92;-9.614;0.226;1.285;0.043;0.593;1.523;-0.09;-0.143;-6.1;3.0;35.1;60.09;8877;2018-04-16 23:27:43:865
-1.517;-10.974;0.419;-1.867;-9.611;0.554;0.35;-1.363;-0.135;3.102;-0.15;-0.503;-6.1;3.6;35.1;60.09;8888;2018-04-16 23:27:43:876
-1.814;-12.092;-0.322;-1.867;-9.611;0.554;0.35;-1.363;-0.135;3.558;0.061;-0.495;-6.1;3.6;35.1;60.09;8898;2018-04-16 23:27:43:886
-1.814;-12.092;-0.322;-1.791;-9.564;1.221;0.322;-2.2;-2.06;2.972;1.406;-0.33;-5.7;7.5;33.9;60.09;8908;2018-04-16 23:27:43:896
-0.996;-10.639;-1.968;-1.791;-9.564;1.221;0.322;-2.2;-2.06;2.972;1.406;-0.33;-5.7;7.5;33.9;60.09;8917;2018-04-16 23:27:43:905
-0.996;-10.639;-1.968;-1.775;-9.504;1.639;0.889;-0.448;-4.398;2.972;1.406;-0.33;-6.2;9.1;31.9;60.09;8927;2018-04-16 23:27:43:915
-1.377;-9.354;-4.754;-1.775;-9.504;1.639;0.889;-0.448;-4.398;1.795;2.898;-0.557;-6.2;9.1;31.9;60.09;8938;2018-04-16 23:27:43:926
-1.732;-9.932;-4.985;-1.774;-9.472;1.816;0.042;-0.46;-6.801;1.3;3.067;-0.561;-7.1;12.0;31.0;60.09;8948;2018-04-16 23:27:43:936
-1.654;-10.148;-5.885;-1.774;-9.472;1.816;0.042;-0.46;-6.801;0.863;2.432;-0.331;-7.1;12.0;31.0;60.09;8957;2018-04-16 23:27:43:945
-1.183;-10.057;-6.59;-1.8;-9.452;1.895;0.331;-0.612;-8.169;0.645;1.075;-0.137;-9.4;12.5;29.9;60.09;8968;2018-04-16 23:27:43:956
-1.183;-10.057;-6.59;-1.805;-9.437;1.964;0.692;-0.822;-8.331;0.645;1.075;-0.137;-9.6;14.1;29.4;60.09;8979;2018-04-16 23:27:43:967
-0.467;-10.865;-3.772;-1.805;-9.437;1.964;0.692;-0.822;-8.331;-0.072;-0.321;0.079;-9.6;14.1;29.4;60.09;8988;2018-04-16 23:27:43:976
-0.467;-10.865;-3.772;-1.805;-9.437;1.964;0.692;-0.822;-8.331;-0.072;-0.321;0.079;-9.6;14.1;29.4;60.09;8998;2018-04-16 23:27:43:986
0.111;-10.722;-2.661;-1.814;-9.444;1.92;1.926;-1.278;-4.581;-0.29;-0.432;0.153;-10.5;13.7;29.8;60.09;9007;2018-04-16 23:27:43:995
1.557;-10.41;-0.186;-1.815;-9.474;1.764;3.192;-0.83;-1.599;-0.875;-0.461;0.136;-9.8;14.4;30.5;60.09;9018;2018-04-16 23:27:44:006
1.557;-10.41;-0.186;-1.815;-9.474;1.764;3.192;-0.83;-1.599;-1.06;-0.419;0.078;-9.8;14.4;30.5;60.09;9027;2018-04-16 23:27:44:015
1.183;-9.938;1.07;-1.791;-9.511;1.585;2.637;-0.412;0.132;-0.947;-0.397;0.016;-9.7;14.1;29.7;60.09;9038;2018-04-16 23:27:44:026
0.63;-10.102;1.751;-1.791;-9.511;1.585;2.637;-0.412;0.132;-0.947;-0.397;0.016;-9.7;14.1;29.7;60.09;9047;2018-04-16 23:27:44:035
0.198;-11.096;1.811;-1.743;-9.535;1.487;1.969;-1.175;0.305;-0.49;-0.382;-0.227;-9.6;13.2;31.0;60.09;9058;2018-04-16 23:27:44:046
0.198;-11.096;1.811;-1.743;-9.535;1.487;1.969;-1.175;0.305;-0.49;-0.382;-0.227;-9.6;13.2;31.0;60.09;9068;2018-04-16 23:27:44:056
-0.007;-11.742;1.287;-1.663;-9.557;1.44;1.656;-2.186;-0.153;-0.279;-0.376;-0.401;-9.5;13.3;31.4;60.09;9077;2018-04-16 23:27:44:065
-0.007;-11.742;1.287;-1.663;-9.557;1.44;1.656;-2.186;-0.153;-0.279;-0.376;-0.401;-9.5;13.3;31.4;60.09;9088;2018-04-16 23:27:44:076
-0.684;-12.043;0.243;-1.663;-9.557;1.44;1.656;-2.186;-0.153;0.039;-0.547;-0.517;-9.5;13.3;31.4;60.09;9098;2018-04-16 23:27:44:086
-1.174;-12.949;-2.834;-1.547;-9.571;1.471;0.57;-2.817;-2.009;0.214;-0.63;-0.53;-9.2;13.5;30.3;60.09;9107;2018-04-16 23:27:44:095
-1.174;-12.949;-2.834;-1.547;-9.571;1.471;0.57;-2.817;-2.009;0.214;-0.63;-0.53;-9.2;13.5;30.3;60.09;9118;2018-04-16 23:27:44:106
-1.358;-13.593;-6.752;-1.432;-9.568;1.604;0.074;-4.025;-8.356;0.644;-0.608;-0.49;-9.2;14.1;31.0;60.09;9127;2018-04-16 23:27:44:115
-1.875;-13.713;-8.352;-1.359;-9.598;1.486;-0.516;-4.115;-9.838;-0.492;0.098;-0.406;-9.3;13.5;30.8;60.09;9138;2018-04-16 23:27:44:126
-1.875;-13.713;-8.352;-1.359;-9.598;1.486;-0.516;-4.115;-9.838;-1.819;0.417;-0.296;-9.3;13.5;30.8;60.09;9147;2018-04-16 23:27:44:135
-2.28;-12.938;-4.294;-1.359;-9.598;1.486;-0.516;-4.115;-9.838;-2.831;0.205;-0.138;-9.3;13.5;30.8;54.92;9158;2018-04-16 23:27:44:146
-2.28;-12.938;-4.294;-1.35;-9.672;0.891;-0.784;-2.702;-3.881;-3.319;-0.4;0.054;-9.2;13.8;30.9;54.92;9168;2018-04-16 23:27:44:156
-1.53;-11.256;-1.194;-1.35;-9.672;0.891;-0.784;-2.702;-3.881;-3.319;-0.4;0.161;-9.2;13.8;30.9;54.92;9177;2018-04-16 23:27:44:165
-0.834;-9.865;0.985;-1.368;-9.707;0.27;0.294;-0.765;-0.502;-3.377;-1.734;0.161;-9.4;14.1;30.4;54.92;9188;2018-04-16 23:27:44:176
-0.834;-9.865;0.985;-1.368;-9.707;0.27;0.294;-0.765;-0.502;-3.241;-2.079;0.018;-9.6;14.0;30.6;54.92;9198;2018-04-16 23:27:44:186
-0.832;-10.523;3.083;-1.368;-9.706;-0.295;0.548;-0.174;1.954;-3.241;-2.079;0.018;-9.6;14.0;30.6;54.92;9208;2018-04-16 23:27:44:196
-0.832;-10.523;3.083;-1.368;-9.706;-0.295;0.548;-0.174;1.954;-3.118;-1.701;0.0;-9.6;14.0;30.6;54.92;9218;2018-04-16 23:27:44:206
-0.905;-12.003;4.663;-1.384;-9.671;-0.855;0.479;-2.333;5.518;-3.032;-1.148;0.006;-9.5;12.9;31.4;54.92;9228;2018-04-16 23:27:44:216
-0.905;-12.003;4.663;-1.384;-9.671;-0.855;0.479;-2.333;5.518;-3.032;-1.148;0.006;-9.5;12.9;31.4;54.92;9238;2018-04-16 23:27:44:226
-2.776;-14.709;7.092;-1.371;-9.607;-1.41;-1.405;-5.101;8.502;-2.856;0.402;-0.077;-8.2;9.0;34.2;54.92;9248;2018-04-16 23:27:44:236
-3.548;-14.769;7.016;-1.285;-9.526;-1.945;-2.067;-4.993;7.506;-2.616;1.68;-0.028;-8.0;4.9;35.2;54.92;9257;2018-04-16 23:27:44:245
-3.102;-13.258;3.316;-1.285;-9.526;-1.945;-2.067;-4.993;7.506;-2.242;3.786;-0.112;-8.0;4.9;35.2;54.92;9267;2018-04-16 23:27:44:255
-3.102;-13.258;3.316;-1.285;-9.526;-1.945;-2.067;-4.993;7.506;-2.242;3.786;-0.112;-8.0;4.9;35.2;54.92;9277;2018-04-16 23:27:44:265
-3.236;-13.191;-2.922;-1.079;-9.435;-2.447;-2.156;-3.756;-0.475;-1.715;2.915;-0.181;-10.0;2.0;36.0;54.92;9288;2018-04-16 23:27:44:276
-3.087;-12.037;-5.765;-1.079;-9.435;-2.447;-2.156;-3.756;-0.475;-1.715;2.915;-0.181;-10.0;2.0;36.0;54.92;9298;2018-04-16 23:27:44:286
-3.087;-12.037;-5.765;-0.962;-9.356;-2.775;-2.14;-1.645;-1.393;-1.348;1.188;0.004;-11.6;0.1;35.3;54.92;9308;2018-04-16 23:27:44:296
-3.183;-9.394;-1.347;-0.962;-9.356;-2.775;-2.14;-1.645;-1.393;-0.968;-0.359;0.171;-11.6;0.1;35.3;54.92;9317;2018-04-16 23:27:44:305
-3.214;-8.213;0.384;-1.024;-9.302;-2.933;-2.217;0.699;2.703;-0.764;-0.85;0.177;-11.6;-0.3;36.0;54.92;9328;2018-04-16 23:27:44:316
-3.214;-8.213;0.384;-1.024;-9.302;-2.933;-2.217;0.699;2.703;-0.678;-0.891;0.164;-11.6;-0.3;36.7;54.92;9337;2018-04-16 23:27:44:325
-2.211;-7.968;0.927;-1.109;-9.256;-3.045;-1.523;1.203;3.926;-0.518;-0.947;0.095;-12.0;-1.7;36.7;54.92;9348;2018-04-16 23:27:44:336
-2.211;-7.968;0.927;-1.177;-9.228;-3.103;-0.174;1.373;3.565;-0.362;-0.877;0.044;-11.0;-2.2;37.4;54.92;9358;2018-04-16 23:27:44:346
-1.131;-7.867;0.219;-1.177;-9.228;-3.103;-0.174;1.373;3.565;-0.362;-0.877;0.044;-11.0;-2.2;37.4;54.92;9367;2018-04-16 23:27:44:355
-1.131;-7.867;0.219;-1.164;-9.205;-3.175;-0.496;1.408;4.221;-0.404;-0.202;-0.127;-10.2;-3.2;36.9;54.92;9378;2018-04-16 23:27:44:366
-2.017;-7.756;1.375;-1.164;-9.205;-3.175;-0.496;1.408;4.221;-0.502;0.52;-0.166;-10.2;-3.2;36.9;54.92;9387;2018-04-16 23:27:44:375
-2.017;-7.756;1.375;-1.126;-9.191;-3.228;-1.214;1.591;4.602;-0.502;0.52;-0.166;-10.2;-3.5;38.6;54.92;9398;2018-04-16 23:27:44:386
